accel_x,accel_y,accel_z,angle_ankle,angle_knee,angle_shank,angle_thigh,current_ankle,current_knee,current_qaxis_ankle,current_qaxis_knee,ground_reaction_force_vertical,gyro_x,gyro_y,gyro_z,impedance_current_desired_ankle,impedance_current_desired_knee,impedance_damping_ankle,impedance_damping_knee,impedance_equilibrium_angle_ankle,impedance_equilibrium_angle_knee,impedance_stiffness_ankle,impedance_stiffness_knee,impedance_torque_desired_ankle,impedance_torque_desired_knee,loadcell_force_sagittal,loadcell_force_x,loadcell_force_y,loadcell_force_z,loadcell_moment_x,loadcell_moment_y,loadcell_moment_z,velocity_ankle,velocity_knee
-0.183271768730322,-0.0826042541826845,0.3197756438239,5.02759201734472,28.7171884499059,4.08195150249545,-24.6383948908319,-0.369370337300806,0.184883061584994,-0.14025595313744,0.070203119749851,0.0904665863636914,7.25004198743151,14.424605935502,-6.403585516127,-0.00749526498239458,0.00726365650221208,0.000580181016477141,0.000580181016477141,8.00000000000001,48.4556718649861,0.029009050823857,0.0967907407564665,-0.000383234342288506,0.000392429620263395,-8.08977515405445,-1.00821539173463,-10.4324543476781,76.0999759251884,0.23741729901291,2.23825310990384,-0.578055786734685,10.9973278145278,-6.56080663346853
-0.401513901290447,-0.188530351281528,0.762792869027554,10.5413328874558,58.6423764022633,8.65908108289808,-49.9919524860115,-0.847882100472738,0.638077724939992,-0.321954689212449,0.242288539305055,0.184433572021409,11.2065532841449,23.8460222510772,-11.1794375003836,-0.0131274477615851,0.0662905259426667,0.000580181016477141,0.000580181016477141,7.73267984363149,48.3298728513037,0.029009050823857,0.0968301400589471,-0.000671208932660113,0.00358144219991943,-21.6277671531965,-8.85713573703661,-21.7291458948612,154.428969182346,0.165285016774584,3.62978708030846,-1.5227982102169,18.3183003126735,-14.3846089355382
-0.306738716240702,-0.097308239680467,1.0599628268821,9.5959594123136,50.8701672850718,8.04259123849668,-42.8352720254525,-0.835408877523458,2.08055884917006,-0.31721840262747,0.790022194476429,0.174798953246152,9.57373336606074,15.394233298429,-13.0937425128219,-0.0120199032386084,0.0668955699068104,0.000580181016477141,0.000580181016477141,7.4630174226888,47.7911327497641,0.029009050823857,0.0969001799323504,-0.000614579967864979,0.00361413058118019,-25.6898726147466,-16.8034983116001,-19.5274679558116,145.617540380513,-0.399392014003854,2.09095685277271,-1.97058553320942,14.7807826947929,-54.3828755046755
-0.441868046195953,-0.0295911354778272,0.953622085211955,10.6072803725246,53.433268228493,8.80094340120368,-44.6392539406818,-0.9148918489555,3.39218543557224,-0.347399385750969,1.28806824327549,0.23415472555954,12.2729886763907,10.7116528778246,-14.7770200384607,-0.0152165478588995,0.0517875131184687,0.000580181016477141,0.000580181016477141,7.13743258583828,46.630338117417,0.029009050823857,0.0970075099806626,-0.000778025023038464,0.00279789581201659,-36.6933116822998,-30.3022386126536,-21.5899404168379,194.637986596735,-0.606186351152966,1.32358206636194,-3.14774587875203,22.2258463918894,-75.4552847359071
-0.38711540734454,-0.105669682578087,0.919545927694266,10.635229486332,49.812233480034,8.59669070275531,-41.2229048874081,-0.960141937796424,3.46990404573265,-0.364581583938067,1.31757926959185,0.292116363507066,7.90153629373394,5.07473671658481,-8.72393232460888,-0.0170194980953873,0.0473009053137306,0.000580181016477141,0.000580181016477141,6.4521327742264,43.1884194047625,0.029009050823857,0.0971800036090394,-0.000870210215914533,0.00255550029172348,-54.0082966973154,-55.7481907721444,-20.6310748978691,241.604063190538,-1.14550278623209,-1.48229631417493,-4.40317162813697,23.8874274198088,-60.4564721311697
0.0501997556054869,-0.182337278323057,1.1263383660469,11.3270287941255,50.5058121837932,8.93064965649265,-41.5822450464129,-1.10939435194288,3.12506784256324,-0.421255164597381,1.18663932810858,0.363999913384038,10.2770743497349,7.99693352106824,-15.151738584269,-0.0207294507508729,0.0654421984557574,0.000580181016477141,0.000580181016477141,5.6332156394366,38.2202248805359,0.029009050823857,0.0973281104525492,-0.00105990080980095,0.00353561007205856,-70.7094691979106,-79.8336958797214,-20.1645944481664,300.399818323001,-1.74448796304187,-4.21193633108688,-5.36295749879249,22.6892030573203,-36.6875264146554
-0.110486597227519,-0.189845052815373,0.943562761902963,11.5045351290981,48.9282146758931,8.92347099537519,-40.012180070202,-1.20546856944496,3.67341061291849,-0.457736114979473,1.39485403875431,0.410730143540316,13.8018513378868,7.94815527004683,-25.0784765045276,-0.0253733284842874,0.119025803719001,0.000580181016477141,0.000580181016477141,4.79065736830431,32.492659414694,0.029009050823857,0.0974427144326849,-0.00129734317281462,0.0064305423777636,-76.4898951734863,-89.1833283393481,-18.9897187994926,339.486125531263,-2.1596235002546,-5.65801942320924,-5.89192751545398,16.2860784645234,-39.2686599205159
-0.425389378175138,0.0401789617519374,0.973627171206044,11.823852970428,48.3209337310794,9.08402135875817,-39.243261471304,-1.34744267948998,5.65166179186722,-0.511646004633088,2.1460283389872,0.451039477910344,14.1317541762901,0.744782252079466,-29.1095277586927,-0.0292805881210185,0.173291341600711,0.000580181016477141,0.000580181016477141,4.12151363333667,27.9347511595438,0.029009050823857,0.097578501384142,-0.00149712211065742,0.00936231708624868,-80.9798542120618,-95.1598963232657,-19.3629117824281,373.21601587628,-2.41450560305251,-6.59687838147829,-6.55057781069625,8.95119948757787,-86.4577218362997
-0.536704920195589,0.119729752246639,0.928423971908367,11.8795756640497,45.9244226688363,8.92486655398295,-37.0063808518482,-1.54192807119921,8.64805094424506,-0.585495286047562,3.28380626562993,0.5073215650517,10.5505720635398,-10.9753147571627,-20.8697844240683,-0.0317036592922729,0.204354245641097,0.000580181016477141,0.000580181016477141,3.51085773014176,23.7732564766738,0.029009050823857,0.09779083632384,-0.00162101420637586,0.0110405357125197,-96.9487725122264,-116.060089728594,-21.0461792136207,418.934384348245,-2.57412363123818,-9.35406715139832,-7.76042489459283,1.94289195490068,-142.123607440357
-0.555144627940329,0.0682958784960344,0.961590858734161,11.8504600887598,42.9876146071836,8.62285056648282,-34.3719791792515,-1.73886524997702,11.3149913241234,-0.660275551077846,4.29648710966841,0.593130525690637,6.82949008843544,-22.2229978410549,-6.47635612644352,-0.0336558542653559,0.203195462936315,0.000580181016477141,0.000580181016477141,2.72674994631842,18.4705418306102,0.029009050823857,0.0981281601354487,-0.00172083031138157,0.0109779307894115,-127.265062057043,-158.008138352856,-21.9718384244675,487.881731676911,-2.9572676206561,-14.8287162841869,-9.05255849126433,-5.42817391989087,-175.018080302077
-0.355709589271748,-0.115319778830684,1.01959975173286,11.6812281779356,39.868961770741,8.14065279419799,-31.7344898014511,-1.8732468116857,12.9873596129626,-0.711302426054542,4.93151267794235,0.69904867507339,5.78169844029587,-27.3463052721676,-3.34578371538303,-0.0354159432723979,0.225618261056289,0.000580181016477141,0.000580181016477141,1.70986199643698,11.5840788729604,0.029009050823857,0.0985447721670898,-0.00181082400134015,0.0121893551111404,-166.625639953795,-214.961032577277,-20.6832072844753,573.174618698916,-3.38598701355065,-22.684984565981,-9.74899733798496,-11.9123052047865,-165.793769806374
-0.255688878763875,-0.148478926111818,1.01351629034411,11.3647877896699,36.9939718272105,7.61215796572534,-29.3898010572512,-1.95071723876626,14.5058716729761,-0.740719213199796,5.50811652189001,0.79689091926331,6.95041063896463,-29.9766171902394,-5.15992648389499,-0.0375937174279416,0.25538390451357,0.000580181016477141,0.000580181016477141,0.784735385824295,5.33877078149549,0.029009050823857,0.0989675760966868,-0.00192217401339617,0.0137974873452678,-200.68133879493,-264.860843161962,-18.9454278770183,652.882098050367,-3.64452973724371,-30.1778103228092,-9.87386290899423,-19.3387822385395,-155.339699703552
-0.370801861535317,-0.0836295401923477,0.987228308163713,10.9306500525885,34.1924652862236,7.0185017781691,-27.1812045061589,-1.9951009328961,16.6108871965616,-0.75757242715691,6.30742531530066,0.869293345202182,8.53011376573591,-34.3917413525204,-6.62779382685037,-0.0390163178202236,0.283136062289414,0.000580181016477141,0.000580181016477141,0.229471183925001,1.56409951971785,0.029009050823857,0.099380314696693,-0.00199491184547497,0.0152968380833083,-223.170084739527,-296.121427779223,-19.4887327753686,712.99656751589,-3.3720797871179,-35.6294363481648,-10.0770405499452,-27.9235784200211,-158.806575120794
-0.438993395354763,-0.0602263535826257,0.983245570085982,10.3241424554486,31.2441937538139,6.31716004350753,-24.9351486937545,-2.03518943257903,18.4824982552872,-0.772794685592622,7.0181066192256,0.917188624131331,8.57085747815969,-41.4143854325613,-6.19938325856026,-0.0383596804482105,0.299193043878574,0.000580181016477141,0.000580181016477141,0.0357189157589982,0.245123386314325,0.029009050823857,0.0997906254218246,-0.00196133785016239,0.016164339896712,-235.905148387024,-310.291189917559,-23.3290703650087,754.036285784808,-2.55588158921081,-39.1009678781604,-10.5868184531719,-37.5011668602198,-170.968633563919
-0.420279626258011,-0.0482909258172107,0.976026887706822,9.51813918918725,27.9459541247273,5.46764978772832,-22.4852730904146,-2.03074442388543,19.5886919088805,-0.771106843153564,7.43814642635544,0.951529308635844,8.80767037516784,-49.6559538821454,-5.84485656736622,-0.035298500291946,0.29252502010289,0.000580181016477141,0.000580181016477141,0,0,0.029009050823857,0.100225775963007,-0.00180481911912776,0.015804090201892,-242.504883916406,-313.835018074979,-29.1186777013152,784.911886482198,-1.45250180687296,-40.9502483975898,-11.0642418268709,-46.7393651444117,-185.065007755609
-0.341819559458256,-0.0384538176255626,0.979365188435787,8.59686639901062,24.5644201513341,4.49176299269071,-20.0809647831655,-1.90592815715974,19.6017380256284,-0.723712066993149,7.44310025007771,0.975436632466361,8.35778645446915,-55.9396406928301,-3.82501222105868,-0.0314243517445673,0.280063990394291,0.000580181016477141,0.000580181016477141,0,0,0.029009050823857,0.100693498258314,-0.00160673315766142,0.0151308649254562,-244.487007840032,-309.25723460959,-36.4996077017999,807.993775516889,-0.169603364802655,-41.4610740136091,-11.296610235169,-53.3941550485456,-191.773943823897
-0.344644360829331,-0.0112773694889986,0.952332842048491,7.52108756994882,20.9685849304571,3.40706000954914,-17.5689191132339,-1.66063130986814,18.7525591178593,-0.630568845558795,7.12065314194306,0.98190206322419,7.35629743985627,-62.3661235495121,-1.66578491172754,-0.0269401284104803,0.253549960731047,0.000580181016477141,0.000580181016477141,0,0,0.029009050823857,0.101186918654256,-0.00137745395483802,0.0136984058617284,-239.910709286109,-293.416181413472,-45.8687974174928,817.312182411543,1.35751073291228,-40.454012474431,-11.2146494303338,-58.6316418490886,-197.390038591171
-0.347523021529056,0.020036749605339,0.936866211342598,6.42892157842379,17.3914965827172,2.1990816498528,-15.1996541019226,-1.34939885836452,17.3002548863014,-0.512388797718641,6.569189492395,0.964272562180522,5.70620736614525,-68.8811749216145,2.02136415836718,-0.0223665935196948,0.219596073219454,0.000580181016477141,0.000580181016477141,0,0,0.029009050823857,0.101692943378756,-0.00114360823491742,0.0118639976434182,-227.899565494584,-265.941125429912,-56.3575309514638,807.070369271292,3.09596266863771,-38.0353383059974,-10.8060435905666,-62.5752718162724,-202.319776664128
-0.213969253082243,0.0303691990609283,0.933261008533184,5.28269068005305,13.8129534281029,0.890934585215106,-12.9294164963089,-1.02939454432962,15.167343044462,-0.390877930329995,5.75928801107574,0.922992386698302,4.11428190482442,-74.0013838461758,4.48113535565964,-0.0176624580524755,0.178653293281321,0.000580181016477141,0.000580181016477141,0,0,0.029009050823857,0.102203373009135,-0.000903084882367466,0.00965200433415909,-207.57066537495,-226.847691193179,-66.7015589308829,777.18799469769,4.95452616776141,-34.2812692524123,-10.0721497202936,-67.9557977609199,-199.417476780209
-0.100974296667194,0.0159436275118048,0.916435106384989,4.02962337196769,10.2647596694615,-0.50736175185798,-10.778752875656,-0.724179467584409,12.5295695384651,-0.274982778018525,4.75768230568042,0.860576660664158,2.48316476561044,-78.6067379800812,3.49463422061514,-0.0124035608095631,0.132764210403566,0.000580181016477141,0.000580181016477141,0,0,0.029009050823857,0.102704273115904,-0.000634196453368051,0.00717277980551175,-178.42619099782,-176.404117196717,-75.9286219949734,729.162266671669,6.67423341668391,-29.1058169422984,-8.99678252960037,-74.1583322873663,-196.012057762217
0.0722437714355562,0.0760021073578337,0.906993330312026,2.60355356736097,6.87591745292241,-1.93779225147577,-8.82094544132358,-0.404131766037105,9.62413802627448,-0.153455435682402,3.6544424814008,0.784773068789976,0.540303760657136,-77.3935847454304,3.85731895209713,-0.00661013637902398,0.0891525503408044,0.000580181016477141,0.000580181016477141,0,0,0.029009050823857,0.103174686535675,-0.00033797754630461,0.00481659636095133,-143.521304056195,-119.815310464122,-83.1544642216213,668.702898920459,8.06430173967058,-22.9155658615288,-7.75696921931249,-79.1871996805896,-174.822558038277
0.46780945518198,0.000482534961105712,0.878552539582992,1.08106684881386,4.02233946664389,-3.2632410699278,-7.29253253321077,-0.0689080017268354,6.66412848996586,-0.026165494315595,2.53047848947694,0.708034042774324,-1.27227678710451,-69.5665077614761,1.30206331071038,-0.000608147466874904,0.0517119400914834,0.000656571516979961,0.000707498517315174,0,0,0.0302822258322374,0.103596196133348,-3.10946971227382e-05,0.00279381286918017,-104.690453806089,-59.8596527381872,-88.1950068853773,605.531439306919,9.15819469477617,-15.7187724113897,-6.61811350893776,-76.9958852018854,-137.895344665464
0.663192051409205,0.0188913247784679,0.854900610502478,-0.189775146257353,1.9697449292803,-4.41196242571317,-6.38956522965747,0.212112010388275,4.15763040263867,0.0805423965722466,1.57872020578739,0.644964274713585,-2.79869762723437,-57.9922907697267,-0.309388877145873,0.0042180827021418,0.0247444272637802,0.000881875145045255,0.00108300456409066,0,0,0.0340372862999923,0.10392657634033,0.000215671381048011,0.0013368537171056,-64.0092802988843,-0.720598940643918,-89.8021933757793,551.82871927136,9.77422902653882,-7.93567253129659,-5.7685953729396,-67.5838904967736,-98.6186868044886
0.612245710023651,-0.0301746940025107,0.878502328316705,-1.22063558144879,0.552669926298328,-5.32108741690655,-5.88094248776945,0.413294264499163,2.28969822373061,0.156934586077388,0.86943583264757,0.608045314959949,-3.39725934962936,-44.0903769884601,1.87164921035992,0.0104961696885073,0.00828720931388462,0.00104916067146283,0.00136181377478662,0,0,0.0368253784069518,0.104167619209541,0.000536671177946605,0.00044772855146724,-31.5585182359842,45.8630391049801,-90.4935236027076,519.221355538081,10.2902405833948,-1.01131068275262,-5.52165695523218,-51.307254995292,-66.4285680218542
0.879835626188436,-0.0489835544285527,0.866410534129808,-1.90449029431973,-0.175216564220983,-5.89913517820785,-5.73152302271834,0.572146861704519,1.15637515697514,0.217253513125531,0.439094544004823,0.601533421401108,-4.61350555763941,-22.4167840735217,-4.49206261717059,0.0117931289897167,-0.00332260584864895,0.0014001701864315,0.00194682963306774,0,0,0.0426755369897631,0.104300872909089,0.000602984956837868,-0.000179508619532485,-7.34527416325983,80.2696667974305,-90.6574531384612,512.01826311264,10.6585487019652,4.48638851252133,-5.60147446504673,-27.364102842421,-18.777682826413
1.05698314405826,-0.167099537319921,0.897254216531237,-2.14749384396906,-0.0551410159732823,-6.0029009997476,-5.95588638255053,0.664430628386128,0.552291312526779,0.25229516738945,0.209714036633342,0.633719673923661,-3.54045420376173,0.698558721968321,-10.3925008517717,0.0113924279438779,-0.00229279633630882,0.00183723988551095,0.00267527913153348,0,0,0.0499600319744205,0.104357874422353,0.000582497035181059,-0.000123871660963726,16.0441864937122,113.003794454473,-90.3138883178217,537.029828746221,11.0123417631884,9.84258905171644,-6.09237095828625,-3.77699088068484,18.1151943052779
0.260354514212123,-0.150939618785939,0.995961157359926,-2.00591212980683,0.254185228825966,-5.83330221610543,-6.09569952507324,0.605484730461992,0.223850017695878,0.229912446683431,0.0849995097635569,0.702208168619166,-1.26952340921397,13.3626029967647,-14.8534488739501,0.0124440711598708,0.00684883802769375,0.00200742631701091,0.00295892318403342,0,0,0.0530659576822105,0.104387772293189,0.000636267755382396,0.000370018448096335,29.5724385855305,134.158819314164,-92.337075594061,593.733791837831,11.4975405136418,13.4835782190495,-7.18271125503551,12.7422988708607,10.9745935608013
-0.0503888810722887,-0.0708272843725382,0.95883453783294,-1.63349322312249,0.237370076603099,-5.5320793488107,-5.77713858503086,0.5368628757791,0.176455054853601,0.203855607076493,0.0670028678676928,0.792039666149543,0.181802280408836,17.3013246111443,-2.96044559516863,0.00890757237166878,0.00227549405904818,0.00220081998916996,0.00328124597096517,0,0,0.0576136425904273,0.104392070492489,0.000455445891140883,0.000122936880238203,23.5186164440624,133.441188612814,-100.18084226937,670.466279683314,12.6086762005708,13.7489922127628,-8.72487471336862,24.9756236293135,-8.38570032711287
0.137315052602871,-0.0831773845115756,0.989840253794581,-1.11898463371002,-0.0126894596185967,-5.26640463593724,-5.2616319252489,0.490158817302093,0.128573905828352,0.186121312858534,0.0488216131331442,0.884215432994155,0.609145968166111,17.6860274392647,-4.91710925597634,0.00268391612666037,-0.00583481504191258,0.00232072406590856,0.00348108609886284,0,0,0.0607504809883847,0.104392070492489,0.000137229148532331,-0.000315234379614122,14.3750643057757,130.6069677669,-110.277556865687,749.382476564181,14.1230491120217,13.2580962060443,-9.88276460340954,28.4460481750647,-12.9265615041885
0.12310960919563,-0.0195825405239672,1.00654551249697,-0.663996071888096,-0.135739990943275,-5.04983275857384,-4.9210198881597,0.319317571500943,-0.0752998834926776,0.121250100026101,-0.0285925962750031,0.9715023092767,0.908849306279358,18.4274100571979,-8.31894999034342,-0.00139089913833683,-0.00341775787460602,0.00232072406590856,0.00348108609886284,0,0,0.0611353385077682,0.104392070492489,-7.11169408582899e-05,-0.000184649346300367,10.6580136380133,135.693542282087,-120.620834847251,823.591732294528,15.9010739923675,13.3968693708924,-10.5919020360137,20.8620093394521,-2.3350708094684
0.0881404344864995,-0.0159392312786295,1.0093807918064,-0.383153523917906,-0.131326627173254,-4.70060555637574,-4.5769066662059,0.077024430746056,-0.146498341306392,0.029247435048795,-0.0556278141962677,1.04088376350772,0.504993150374741,18.3927044402328,-4.66626810177981,-0.00280999402250257,-0.00149893500284897,0.00232072406590856,0.00348108609886284,0,0,0.0614875291581474,0.104392070492489,-0.000143675535631879,-8.09821463595359e-05,11.7371249086179,145.769573952131,-129.170772723096,881.994713237359,17.5936593748495,14.5204106689752,-11.254815301293,12.034015734292,0.90107958790962
0.109229441985042,0.0161011235385317,0.993285313715863,-0.202712538142376,-0.108665577734499,-4.39561403120989,-4.29438616174887,-0.168647360367018,-0.0700422474625907,-0.0640381586817198,-0.0265961859567348,1.08220314798805,-0.0379457939698916,18.9264249942801,-1.95668826577451,-0.00286212562212968,-0.000890852606175821,0.00232072406590856,0.00348108609886284,0,0,0.061822906455688,0.104392070492489,-0.000146341034362407,-4.81296093566329e-05,13.5928780385904,154.328147056504,-135.104914582646,916.576665556249,18.9141916511503,16.0866970572522,-11.6922619557011,10.0135244238397,1.12537409898641
0.158399209994384,0.0118989677169366,0.980529245769554,0.0495204626805951,-0.100669351769184,-4.19195106655316,-4.09875240143869,-0.346992349577698,-0.000280966662438816,-0.131758665509153,-0.000106687633143939,1.0922242093907,-1.37424288156832,20.7687221968582,-0.259972023322516,-0.00654281365000887,-0.0011927828001124,0.00232072406590856,0.00348108609886284,0,0,0.0623283114579457,0.104392070492489,-0.000334535322202356,-6.44418277712152e-05,14.8956987501133,159.045697861959,-137.979998668525,924.7796902239,19.6698406039681,17.6390328172303,-11.7238957689559,15.9944985127207,-0.0022456990317876
0.130865920942336,0.013074846009735,0.977340700755018,0.403189226794618,-0.100408193997931,-3.95936475219718,-3.86511557917651,-0.49247119938226,0.0125526026786397,-0.186999362122158,0.00476642836540074,1.07609088980292,-2.34312878712327,23.2744335162633,2.60422781460032,-0.0108206973791652,-0.00128375147056133,0.00232072406590856,0.00348108609886284,0,0,0.0630587576323138,0.104392070492489,-0.000553264341280502,-6.93565426657411e-05,13.5470821386315,157.212951671034,-138.054484379999,910.993884012854,19.8558724280825,18.2732716168071,-11.3236774408722,19.6432688587069,-0.00236661681001443
0.127234760171502,-0.0171489554708523,0.972940259179188,0.756903452959654,-0.0986487996794805,-3.61450497985925,-3.52447379436415,-0.714819999200653,0.00820698112167594,-0.271428834925486,0.00311632484625918,1.04461450966183,-3.25781033573882,25.4274218337161,3.76247365009596,-0.0139706731372516,-0.00117778274374581,0.00232072406590856,0.00348108609886284,0,0,0.0638365956735437,0.104392070492489,-0.000714323208540095,-6.36314278821131e-05,8.75488696273257,148.334340229092,-135.953060349352,884.351272808718,19.5565456931057,17.6989575202638,-10.6009525988732,18.5295981445138,0.062534204458135
0.0873160031853839,-0.0193604501191843,0.967188418318284,1.08317024771451,-0.0944807128302756,-3.22249969238164,-3.13562481874065,-0.958439689717174,0.00950805985857573,-0.363935212525094,0.00361036570423453,1.0112715051187,-3.98193930873937,26.9801568688442,2.86924905158292,-0.0167064594117696,-0.00116136641451985,0.00232072406590856,0.00348108609886284,0,0,0.0645791141332659,0.104392070492489,-0.000854204487723618,-6.27445117893297e-05,2.29989097137595,135.823323616371,-132.570786612672,856.179555965654,18.9814734978704,16.6610858421221,-9.69104901419971,17.8503345583326,0.0265104670160336
0.031702038115817,-0.0412178081469787,0.957678571057318,1.43610383530406,-0.0907361737560023,-2.72421748305005,-2.64192571529497,-1.19362436708441,0.0108015567842339,-0.453238677791174,0.00410152762458332,0.986253765570166,-4.71316312284326,28.2520580794894,2.25210672874958,-0.0204394512079258,-0.00108712512310193,0.00232072406590856,0.00348108609886284,0,0,0.0655830796059742,0.104392070492489,-0.00104507307731033,-5.87335179062728e-05,-4.81307598363145,122.56324317063,-129.369960503414,834.976765871241,18.3637829224565,15.6531666746046,-8.79166041784226,19.8104718700748,0.070625283455212
0.0240008408424805,-0.0223599758377387,0.960882012386146,1.83321935800113,-0.087875737614414,-2.15554559880428,-2.07566551885995,-1.44009220130255,0.0118612418613822,-0.546826542097218,0.0045039073652172,0.97498778716994,-5.44059790315323,28.9534845740482,1.80398308219629,-0.0250537860424773,-0.00105561492520956,0.00232072406590856,0.00348108609886284,0,0,0.0672057588906631,0.104392070492489,-0.00128100490621458,-5.70311335782748e-05,-11.7645660829503,110.324635017237,-126.962243927179,825.306311534546,17.9380728542354,14.8785630372081,-8.05558049275797,22.8647972062484,0.061346755292824
0.0200651043392641,-0.0191141586207989,0.966366597818964,2.26709973136464,-0.0841276387343872,-1.60308160391931,-1.52628444480975,-1.71740868702477,0.0123369249713273,-0.652128143492513,0.00468453201543757,0.978526297078635,-6.15965068433365,29.4906331788796,1.28384095825631,-0.0298830196328099,-0.00102907044299494,0.00232072406590856,0.00348108609886284,0,0,0.0689664944342572,0.104392070492489,-0.00152792454989573,-5.55970292711121e-05,-18.127684929574,100.456431577891,-126.092849459721,828.102616347451,17.8536886811842,14.2797343193374,-7.52936574106178,24.0316710404393,0.0151456153370589
0.0140517653818358,-0.0273611417746098,0.974412238628109,2.7022586047016,-0.0824363497908332,-1.04870778753132,-0.973627828706061,-2.02384884326316,0.0135297732809872,-0.768488478507178,0.00513747601154271,0.993914487939161,-6.92528352200022,30.0847040574785,1.28089840290304,-0.0349334025188224,-0.00100891356523876,0.00232072406590856,0.00348108609886284,0,0,0.0708846253285417,0.104392070492489,-0.00178615159966279,-5.45080245967937e-05,-23.6374239814134,92.9741516998945,-126.402517273972,840.854417573254,17.9689789579617,13.8872441231773,-7.18410182228407,23.7358104714249,0.0376357720731092
0.0196541619241102,-0.033254199654911,0.977502526832008,3.12184774664382,-0.0774377760775798,-0.511490786276407,-0.4402793977483,-2.3412656383788,0.0156520286577359,-0.889016822678249,0.00594333105892442,1.0158222755154,-7.51182946105106,30.8076021735242,1.26607699889227,-0.0395972635951611,-0.000917600143098185,0.00232072406590856,0.00348108609886284,0,0,0.0725633825416185,0.104392070492489,-0.00202461571484936,-4.95746839900806e-05,-27.9204268213215,87.1490888628767,-126.634535140835,859.085839951729,18.0908750452514,13.7190872467673,-6.92976004553255,23.3154689999186,0.157808358684039
0.000650446049353402,-0.0306498777075834,0.979533690025219,3.55886311263325,-0.0715304865858418,0.0310856713748717,0.0971821097501931,-2.69344003299329,0.0205424871421232,-1.02274319537025,0.00780031806285981,1.03742384164044,-8.19717834048732,31.4609050455772,1.0743576819513,-0.0450600985491943,-0.000783464002845389,0.00232072406590856,0.00348108609886284,0,0,0.0742240889310295,0.104392070492489,-0.00230393151830088,-4.23277836765854e-05,-31.3894645298694,81.8730919213463,-126.264498375117,877.047980071916,18.1316589961301,13.7547604551855,-6.69130215560874,23.5542758188381,0.271215648173955
-0.0393264504908471,-0.0193190330095453,0.985906056962171,3.97300791467029,-0.0654838617129323,0.650070804462137,0.708195217842283,-3.06026810615159,0.0264960504505726,-1.16203380926837,0.010060983341216,1.05264458093841,-8.96940564996847,31.5139242383263,1.14726565990834,-0.0499897240236997,-0.000713792212185997,0.00232072406590856,0.00348108609886284,0,0,0.075913476392311,0.104392070492489,-0.00255598421835728,-3.85636637263634e-05,-34.7073495280765,76.0642878795873,-125.147892296217,889.596367889955,18.0931414621491,13.846343231686,-6.43876002314593,23.1356686213289,0.149104007219475
-0.053689681814098,-0.0370798879015928,0.992641919824183,4.39918114319798,-0.0627079449962015,1.29513824965784,1.35070908319805,-3.44624969925046,0.0300052664265467,-1.30859732768513,0.0113934899931364,1.05469635723508,-9.6748724162953,31.0086054609397,1.47350539267163,-0.0548562365819809,-0.000738452561701744,0.00232072406590856,0.00348108609886284,0,0,0.0778945622476144,0.104392070492489,-0.00280480994285032,-3.9895975020693e-05,-37.088709308575,70.4300230142,-122.8813787293,891.056851513647,17.9152833785755,13.9694808335027,-6.12558557394356,22.0092061434758,0.00838229734877803
-0.0734547312666557,-0.0438233024919681,1.00097340219406,4.76672423073498,-0.0605116668711051,1.91957888258784,1.97403839262794,-3.81103358676908,0.029780080875913,-1.44711173089082,0.0113079833596917,1.03920631499941,-10.3959836394334,30.1844046480789,1.78903046112916,-0.0590705440947457,-0.000747289186944087,0.00232072406590856,0.00348108609886284,0,0,0.080042393381837,0.104392070492489,-0.00302028829773831,-4.03733865677845e-05,-37.3506729067782,66.0902980950858,-118.912126283613,877.81331007621,17.4775408576584,14.1703607467001,-5.68829236867429,19.7992046651274,-0.0393455959359672
-0.106196019672791,-0.019008186836432,1.02427470258858,5.11710418240874,-0.0608677739039367,2.49598497182303,2.54933012686104,-4.16536968174199,0.0290812771916959,-1.58165893653432,0.011042636181296,1.00532417266347,-10.9668260483742,28.2005941646335,0.733162720595299,-0.0629121103353545,-0.000768337681489223,0.00232072406590856,0.00348108609886284,0,0,0.0818990481812725,0.104392070492489,-0.0032167083195835,-4.15105621375472e-05,-36.1395521612024,62.4823860277299,-113.591430832192,849.158755377595,16.8604674337449,14.3940347788508,-5.12110361205968,16.6225674148492,-0.0634497505873772
-0.116461727421533,-0.039311250626034,1.03877618165253,5.38211111044642,-0.0588681338422776,3.04869012889766,3.10123249981815,-4.48950620137637,0.0284367099832301,-1.70473886991552,0.0107978834790483,0.952530849545013,-11.2932731334364,25.5367688108465,-1.50721993027632,-0.0659517079392697,-0.00069585781024069,0.00232072406590856,0.00348108609886284,0,0,0.0839378609686172,0.104392070492489,-0.00337212353055927,-3.75947315442174e-05,-33.9489972583392,59.1219608291358,-107.133093180846,804.627382493753,16.0837677172925,14.5250436721525,-4.55032121588161,12.1988817971897,0.0265666186492976
-0.125923169726012,-0.02775381564514,1.07488985845917,5.53052409003692,-0.0615814599330616,3.5978925947949,3.65258180440842,-4.71734897418039,0.024876836812137,-1.79125449404123,0.00944614146232693,0.881452866463766,-11.8998462729841,22.5897625162419,-4.12598736577796,-0.0667391733668261,-0.000786776799507189,0.00232072406590856,0.00348108609886284,0,0,0.0857315818578095,0.104392070492489,-0.0034123867895519,-4.25067623405137e-05,-30.5004702832528,56.4171587409297,-99.5513374742634,744.756862072247,15.05662142059,14.517937180079,-4.06200217068402,5.79496970026979,-0.313059804556614
-0.0778362748868645,-0.0190993481346209,1.1462543837967,5.57987792762277,-0.0720902812997239,4.08296120166776,4.14734427317728,-4.83036390600456,0.0125395764627993,-1.83416811048806,0.00476148209837823,0.795035109174076,-11.8551831506225,19.6564661729184,-9.12452729644014,-0.0662310249910468,-0.00114431031639002,0.00232072406590856,0.00348108609886284,0,0,0.0870084076018665,0.10349063667128,-0.00338640506521871,-6.18230312498482e-05,-25.5552676452841,55.1708486873059,-91.311454781341,672.029246796286,13.891080287418,14.3891282779644,-3.69635517436563,-2.08953761269207,-0.780745337033082
-0.0760588626112487,-0.0604340367473215,1.18332530393936,5.45095825212407,-0.0888450646857325,4.49844117540481,4.58194686688532,-4.80152732473555,-0.0118852984099049,-1.82321838934731,-0.00451304202981129,0.695708440255285,-11.3661821661292,16.8736960319821,-18.3727070505507,-0.0629497467361522,-0.00145533372198825,0.00232072406590856,0.00348108609886284,0,0,0.0870910177310825,0.0990779344997398,-0.00321863267600582,-7.86265236664805e-05,-19.2539715564941,54.7795198524671,-82.0087475572068,588.472546220112,12.5643041834851,14.0309188133324,-3.37030520513767,-12.439003266313,-1.17333284018979
-0.0743285344392454,-0.0756322179634605,1.22706979035861,5.14723534450052,-0.112261299927996,4.83937262339174,4.94389629501652,-4.5973472272356,-0.0386577718557345,-1.74568786971809,-0.014678987699492,0.583290652657941,-10.9144553054389,14.0696550571185,-26.5280688086574,-0.0568309948093492,-0.00193445517240717,0.00232072406590856,0.00348108609886284,0,0,0.0853994789592292,0.094728399851687,-0.00290577971139379,-0.00010451175774806,-13.4161450413213,53.4989171924536,-72.4722114646548,493.757330449076,11.0291466879209,13.2524428493749,-3.06587699061354,-23.8538798743554,-1.32433832648297
-0.0520789858336346,-0.0911069855983774,1.27328422181304,4.61697899955239,-0.13627606731238,5.11592289949954,5.24398638403208,-4.23075493420111,-0.066008959512779,-1.60648678538597,-0.0250646806122277,0.465973617582732,-10.5880359704901,12.863064214477,-35.3381037772858,-0.0481068208698691,-0.00192677239144051,0.00232072406590856,0.00348108609886284,0,0,0.0830225406660791,0.0936002700974258,-0.00245971101741693,-0.000104096684318252,-8.69827534397582,51.212312757728,-63.5135317184341,394.743012459349,9.51681786165355,12.1712402667354,-2.73654725232721,-34.6939457923932,-1.29149195975815
-0.063389541581751,-0.13542393128961,1.31785585935885,3.97654338288501,-0.149249186632943,5.35624108898499,5.49760536970403,-3.74186805470441,-0.0736189854006722,-1.42084844809751,-0.0279543318010773,0.353122528524278,-10.3948789176798,12.6084533886479,-37.3964970471738,-0.0378184204303755,-0.00219307629164578,0.00232072406590856,0.00348108609886284,0,0,0.0796590564760492,0.0859612200471435,-0.00193366312119293,-0.000118484140333056,-4.47826481165731,48.550315520887,-54.8835383534309,299.428298606143,8.04776884832048,10.9336128753488,-2.41193952767179,-42.1663151435579,-1.32543538559351
0.0143979210894612,-0.151640792106827,1.35032965226091,3.18245536210435,-0.190544703017337,5.60919379327795,5.79317441893452,-3.14193873072391,-0.0792204742273599,-1.19304548003876,-0.0300813086452844,0.252932994100148,-9.17424038493403,14.095768186742,-37.8745226626894,-0.0277886540360447,-0.00250912668469816,0.00232072406590856,0.0034279028390191,0.275000000000034,1.65000000000021,0.07547881490196,0.0756688620988769,-0.00142083923351621,-0.000135559223067471,-1.03550488705981,45.6665552585964,-47.13098031378,214.763210438945,6.5906286975432,9.64794147814746,-2.05363264157393,-47.2451093299285,-2.17601789541262
-0.0349764547626905,-0.188980751181558,1.35546115338121,2.23495680433755,-0.223055859400551,5.91662436132346,6.13109604932881,-2.38331023446657,-0.0960521267731143,-0.904981842884422,-0.0364725621713099,0.168519911954431,-8.10719421876832,17.4075913781683,-43.6410055312288,-0.0151109846062415,-0.0033944189107333,0.00232072406590856,0.00317487945127769,1.58333333333332,9.4999999999999,0.068719491873278,0.0641422345994173,-0.000772627553596457,-0.000183388424789676,0.473001162229965,41.2784841799791,-40.6095595213353,143.283115199093,5.27684172550768,8.24258828188619,-1.52616965276097,-49.5780119916344,-1.07400143865988
-0.068340581269315,-0.213367829620281,1.34681832274074,1.4642336505348,-0.21759531492825,6.28389651122798,6.49313294715667,-1.64620482998362,-0.103796447812591,-0.62509087539636,-0.0394132074237997,0.10636011250534,-7.90334454180177,20.6900322093099,-41.3510912156475,-0.00747780792971583,-0.00082187779011141,0.00232072406590856,0.00299760191846523,2.5,15,0.0633938146039401,0.0564064877130555,-0.000382341759822463,-4.44031444738771e-05,-0.814231396594913,34.5466620697677,-35.6981591537422,90.373447090433,4.12108693457251,6.64112852924206,-0.968423613003502,-44.9495379624942,0.715460152293302
-0.0598147886825858,-0.195096218155492,1.36965255463062,0.851217579906227,-0.205732581850011,6.68909928356358,6.88762462449538,-1.03132072751029,-0.0918832266732717,-0.391609333560412,-0.0348895626773305,0.063613376718686,-8.5941145796664,23.2381163373462,-29.3984891419042,0.00479534979711342,-0.0137018056481397,0.00232072406590856,0.0029009050823857,3.00000000000002,18.0000000000001,0.0599217018014853,0.0475748433511256,0.000245187158807155,-0.000740260003454844,-3.65760560589162,26.7268566856883,-31.8994921393521,53.7200269208982,3.14228762780829,5.0945616031644,-0.527103619683596,-35.8582915468998,1.21419301000689
0.0686765092110858,-0.192881628950753,1.31488825783961,0.195196277425687,-0.0808906279180643,7.1529863679167,7.22655615045573,-0.439891692224063,-0.39914288833482,-0.167034064026323,-0.151561077293114,0.0373027090685168,-7.66796144238263,28.3269565033643,-9.75990939335778,0.0122535029465181,-0.0235880509462459,0.00232072406590856,0.00245448802248525,5.30833333333329,31.8499999999998,0.0537567708727827,0.0390268430416958,0.000626523965926405,-0.00127437880257277,-5.97030667065044,20.1128376271362,-28.5561262922966,31.0347926475206,2.34000803438497,3.90150633442369,-0.247237634413221,-24.59682143078,12.1657116446035
0.1959779898652,-0.167531716240869,1.27989992167913,-0.328825411092314,0.288129890158996,7.75807813390359,7.46136434747609,0.171283323941275,-0.885056590382684,0.0650390771264567,-0.336070450518078,0.0217482797799434,-6.60617055542413,38.3389925474693,7.25105638043914,0.0160961685935233,-0.0204478479230267,0.00232072406590856,0.00185657925272686,8.39999999999995,50.3999999999997,0.0473295364989787,0.0301436270338569,0.000823000200632412,-0.00110472476130903,-6.17057651000443,17.1239636424012,-25.8504766305103,17.715741209445,1.76128264644355,3.27952263285123,-0.106951370160939,-10.7722434758463,26.1650793230824
0.212906501066684,-0.170756760058,1.29138240602334,-0.353775393795354,0.860854473684675,8.54346248190623,7.67488735315488,0.629222121342126,-1.03408987570247,0.238925921905124,-0.392660824381013,0.0125636678050467,-4.99290303242914,47.1505359526419,19.1029895352293,0.0248037297823078,-0.0392850575249362,0.00232072406590856,0.00151814032644852,10.15,60.9000000000001,0.0440281405682216,0.0258567339676646,0.00126821948146625,-0.00212243244182064,-6.56962797723007,14.811457776555,-24.1023147616995,9.75390220691673,1.40540887268342,2.90785824984617,-0.0610177210911752,6.30073736588789,37.3607698640762
0.343308980269638,-0.148579343492446,1.19384005576265,-0.096871566668605,1.78319896345827,9.42147056252386,7.6314532728543,0.911452488676619,-1.35440181721565,0.346093404448782,-0.514288502950253,0.00728568228213969,-4.40982416780049,53.0923259870254,19.2033306719439,0.0349819459530508,-0.0680499531801719,0.00232072406590856,0.00116036203295429,12,72,0.040332680099043,0.019210438101132,0.00178863363480533,-0.00367649781859921,-9.21680659078418,10.3793323000618,-23.4138651825185,4.71434494031143,1.22700984244972,2.29623806699594,-0.0530602275073248,23.7250798868991,66.216508277662
0.58770476183466,-0.220637755979677,1.16636429451729,0.525894201137385,3.37843803897978,10.5795866072183,7.19429124795897,1.24035826780403,-2.31309354134249,0.470984303596319,-0.878319417059318,0.0029111183713859,-4.03043456735823,78.3823935625062,16.8503293824346,0.0330466298852096,-0.0784600613552486,0.00232072406590856,0.000873494752585028,13.4833333333334,80.9000000000001,0.037470949054198,0.0151233851628375,0.00168968055147583,-0.00423891907252306,-11.5380827599977,7.02606904581036,-23.3433821687822,0.348656324643782,1.07713295716512,1.56734167279754,-0.0144221227485087,42.2552013766646,110.996679155378
0.374528072604232,-0.242514847559563,1.19837967726696,1.40485129083261,5.74191565233783,12.2765458787261,6.52729575532849,1.5827467876786,-3.09366023969822,0.600994819733725,-1.17471334805348,-0.00247772055325311,-4.28520583343655,106.129009715882,14.856206951134,0.0330008669848617,-0.0886411651652563,0.00232072406590856,0.000741342409943013,14.1666666666667,85.0000000000001,0.0361001521363554,0.0135375570511333,0.00168734068556619,-0.00478896803213545,-11.8016744516897,5.64135901329437,-22.3314470815859,-4.71187159219985,0.810731015191499,1.01141347356281,0.0804163129932244,58.2544313010884,156.278156918593
0.362949901316204,-0.153340049088959,1.145540852467,2.58291058688025,9.03898093352282,14.2892810302438,5.24294572499745,1.61350694640624,-3.18382276279575,0.612674954669657,-1.20894953146423,-0.00382952159687264,-6.09826336962751,120.005292278854,8.98542876909102,0.0298212725964218,-0.0970579724548091,0.00232072406590856,0.000741342409943013,14.1666666666667,85.0000000000001,0.0361001521363554,0.0135375570511333,0.00152476741203148,-0.00524369830296578,-15.1593063493486,0.676793223420194,-22.1152898588376,-7.20197716675408,0.780208892189921,0.338882812345349,0.112210214501709,70.0660991847932,202.831181350938
0.433646773447039,-0.183348028458127,1.0991866827292,3.84548544603657,12.8885151492827,16.5841586446832,3.68815147334576,1.45766074756449,-3.00303506055865,0.553497606209227,-1.14030148658308,-0.00210430067712499,-7.61581080878472,136.680821878678,2.12607216547877,0.0231161272220265,-0.0933201071211909,0.00232072406590856,0.000625306206647581,14.7666666666667,88.6000000000002,0.035171862509992,0.0121451226115881,0.00118193203749289,-0.0050417546850344,-17.6720890201944,-2.02422952154845,-22.9678784462751,-7.1192058414577,0.931100663419007,0.0140213237109543,0.0876530607137195,77.1139734280386,240.663555810016
0.268648538208049,-0.144342054021701,1.13880474086517,5.2099242938255,17.4974620582145,19.1618556452473,1.65563731316587,1.28113332740216,-2.52548320000992,0.486467260051252,-0.958967241220348,-0.000268738465981031,-10.6159662104993,146.544470100341,-1.59439258118664,0.0159289792619813,-0.0837781886719415,0.00232072406590856,0.000580181016477141,15,90,0.0348108609886284,0.0116036203295428,0.000814451777906643,-0.00452623864535344,-19.6059609715174,-3.81040572006097,-23.9166101892165,-7.05341060844143,1.03922912061599,-0.265076452115615,0.0826321189082572,78.1169255377335,267.717658287671
0.222931393240769,-0.119029144726889,1.14198838434672,6.64875708827185,22.5998712662609,21.7952697149581,-0.812601016623874,0.872012084058197,-1.685218187695,0.331117238299906,-0.639904884856046,0.00446835598384179,-12.8843192250037,146.819259305826,-0.411896088767633,0.012869041408163,-0.0802923685815285,0.00232072406590856,0.000580181016477141,15,90,0.0348108609886284,0.0116036203295428,0.000657996566035386,-0.0043379121387282,-21.9841376068465,-5.86448704959651,-25.2257785110822,-4.72242876168013,1.22089866603331,-0.23103188096438,0.0514525192198805,73.2470159526285,283.099626486943
-0.248932883827099,-0.122890486574545,1.0449019594962,7.8053074798963,27.7515994617059,24.5291860704062,-3.23019636257685,0.556880231100184,-1.13640518422627,0.211456524005464,-0.431511619012824,0.00548000658206393,-17.4621725070307,151.572071997634,-0.307541698656352,0.0118284304189692,-0.0755076107995692,0.00232072406590856,0.000580181016477141,15,90,0.0348108609886284,0.0116036203295428,0.000604789925715318,-0.00407940863173351,-23.5372320168529,-7.77396803298158,-25.5127047059741,-5.64847652634802,1.26626585716267,-0.578003822442471,-0.0423995343532588,59.0816943188787,295.001643241509
-0.165317471447741,-0.0637880730609317,1.03302977384422,8.83290152148674,33.2311442330998,27.1011385572801,-6.13767383775551,0.428275387550061,-0.736775434775379,0.162623163313794,-0.279765672597898,0.0102255364062382,-18.4641513166524,133.393897090214,-0.301908475796076,0.00995087567556655,-0.0660865403839447,0.00232072406590856,0.000580181016477141,15,90,0.0348108609886284,0.0116036203295428,0.00050879019003036,-0.00357042158305461,-26.7007976885411,-12.583441743548,-25.1771884737671,-3.95297417490956,1.19652416555813,-1.23052023349139,-0.0283846497169637,49.4602185969447,299.428809967743
-0.209995130800189,-0.0386155742368032,0.998506338698633,9.65730033940746,38.5707077289385,29.3730303684929,-9.20525233194289,0.313419549662559,-0.420768607223246,0.119010524751559,-0.159772716151673,0.0149327163886084,-23.6936144111183,120.435993417683,5.53108753049801,0.0083054972730244,-0.058877006762794,0.00232072406590856,0.000580181016477141,15,90,0.0348108609886284,0.0116036203295428,0.000424661675375432,-0.00318091603025724,-25.1991074835011,-10.3248993411037,-25.3120202217609,0.30352177759027,1.13448559977574,-0.759034853887379,0.0497923626559077,40.9452281813552,293.894757937683
-0.451199342912537,-0.037714945681512,0.962185849506336,10.3005043707834,43.864950852042,31.3954122920717,-12.476363647495,0.230305906178922,-0.247727742718919,0.0874509161194521,-0.0940662721525816,0.0167285153063136,-25.7879844504579,100.797100441168,9.67932220182423,0.00827767074230088,-0.0512058272327751,0.00232072406590856,0.000580181016477141,15,90,0.0348108609886284,0.0116036203295428,0.000423238899499589,-0.0027664693849594,-22.4395519506955,-6.84119588214329,-24.8931228201059,2.87377097859467,1.01141212045253,-0.344284819902015,0.0848337728198797,30.5597376626189,285.194159996949
-0.429865176293596,-0.0102341282103518,0.874078607126155,10.7836707220934,48.8724982121037,32.9820119328543,-15.8994461535558,0.207757456014244,-0.131607238992463,0.0788889011164893,-0.0499734193047625,0.0191773594173149,-26.7303090885952,77.2360589843898,12.6081632536723,0.00805348846384892,-0.0446953359764296,0.00232072406590856,0.000580181016477141,15,90,0.0348108609886284,0.0116036203295428,0.000411776416420328,-0.00241473061390411,-19.6735457599372,-4.16964827793928,-23.6529469557316,6.56051702475054,0.824706492126406,0.0525205348687015,0.0850183435709309,23.6686952628222,270.609167730778
-0.604303493064908,-0.00643402264854656,0.806044322138764,11.1589953425836,53.594919234413,34.1767804985728,-19.4259633155505,0.215452107329833,-0.0731453473816013,0.0818106859631411,-0.0277744837052817,0.0198776228448581,-27.8303570525541,54.7316953225563,12.7428959781851,0.00822311991808156,-0.038467860632668,0.00232072406590856,0.000580181016477141,15,90,0.0348108609886284,0.0116036203295428,0.00042044970534967,-0.00207828218966932,-15.6338943167626,0.355738753838158,-22.4654041293114,9.6974054449484,0.608590490257758,0.581576479115949,0.0639963201675936,16.9696113658653,252.763702815574
-0.666087859238565,0.00570258820385376,0.720308404006716,11.4254023405688,57.9394795517203,34.9123005068208,-23.0334786234231,0.244220217552162,-0.0570229148727534,0.0927344075285514,-0.0216525326169868,0.0211127265061633,-26.9817973598951,28.3776019795665,12.2846938314563,0.00837959307891633,-0.0332195448381968,0.00232072406590856,0.000580181016477141,15,90,0.0348108609886284,0.0116036203295428,0.000428450208203027,-0.0017947342859903,-12.3563837264301,3.64442036059518,-21.1189858083989,13.1427229040164,0.36723169203275,0.93796753748974,0.0350372563400563,12.3356165434539,232.148621164076
-0.729060795635502,0.0203476771810359,0.606854781166446,11.6157674896399,61.9149303392924,35.1891690195662,-26.7340129143758,0.276739079511051,-0.0468733796820602,0.105082350821233,-0.0177985882464799,0.0221355651923482,-27.0485553677095,3.2532438018219,14.3808234428053,0.00859221033409774,-0.0284560004955584,0.00231169902787447,0.000580181016477141,14.9455555555555,89.8055555555555,0.0348108609886284,0.0116487455197133,0.000439321369414809,-0.00153737686594709,-9.30461600944481,6.69915149847193,-19.8578656517026,16.3375601450771,0.126794932342565,1.2518052289764,0.0435174554187346,8.59994767164844,208.558527256098
-0.777627003171963,0.0317380249782539,0.514095301203993,11.7494153116322,65.4795825227222,34.9991176087689,-30.487478171489,0.312638238087879,-0.0565451231717837,0.118713847978852,-0.0214711073002969,0.0231483898009907,-26.141371422678,-22.3851137360123,15.4356557356222,0.00879048576719704,-0.0246963213560125,0.0022723756478688,0.000580181016477141,14.7083333333333,88.9583333333334,0.0348108609886284,0.0118453624197416,0.00044945923050101,-0.00133425472538402,-6.42008100688661,9.84347791200754,-18.9228435434805,19.3953595780146,-0.0771216343222242,1.57385054291111,0.0659501858843194,5.85466742587674,183.360153744993
-0.81354789076131,0.0258692443631292,0.445176014831279,11.8434001708244,68.516401067906,34.3741535834137,-34.1496102833474,0.343692340958355,-0.0779234599335843,0.130505598309307,-0.0295888111227824,0.0229831342802341,-24.3841726856396,-45.4299925048164,19.2389666570352,0.00890444101068149,-0.0214696306933624,0.00221500219179495,0.000580181016477141,14.3622222222222,87.7222222222223,0.0348108609886284,0.0121322297001109,0.00045528578405044,-0.00115992806345202,-2.6869421876995,13.9844588596171,-17.7843689427742,21.7036465379985,-0.233959633249493,1.99220327737973,0.0569972615650102,4.12974564860453,154.161187281236
-0.795245092322996,-0.0148723173676659,0.382901484978964,11.9119788344234,70.9709970452711,33.3465635077457,-37.6307844670497,0.368042653702656,-0.146630316901207,0.139751809978885,-0.0556779274862979,0.0225989536059129,-21.4001113186917,-66.5897266892209,24.0539514890265,0.00748129424684032,-0.0179306604321126,0.00216085196359042,0.000580181016477141,14.0355555555556,86.5555555555557,0.0348108609886284,0.0124029808411335,0.000382520015888573,-0.000968730041447161,1.43393359477386,18.4964110688171,-16.4685227315455,23.8148258867405,-0.384005421463164,2.4834855122268,0.06053614579797,3.01269516685507,123.708783403283
-0.764418794681292,-0.0357969584174493,0.351034892239574,11.9649236068139,72.8946189976219,31.9674795381086,-40.9357373414588,0.371246669014565,-0.249720647381533,0.140968426951224,-0.0948230106200222,0.0219485197022238,-18.0303259094741,-84.6185616330467,25.2262503523536,0.00521536390742915,-0.0136424922433013,0.00193780459503365,0.000580181016477141,12.69,81.7500000000001,0.0348108609886284,0.0135182176839174,0.000266662561170756,-0.000737055510383045,5.27912052277263,23.0192732524054,-15.5534694116982,25.1674931179047,-0.475405591530263,3.02146685096508,0.0586859234614534,2.34265042419161,93.196272763685
-0.719363208371281,-0.0709463390114217,0.390355805881944,11.9913756541177,74.2780366106012,30.3364984558172,-43.9498151334278,0.325445302203445,-0.334161405793417,0.123576899510135,-0.126886546477429,0.0200845752057071,-14.3507303534434,-96.8571998339237,26.6216300190342,0.00537797293950325,-0.0135967648759982,0.00160387818777236,0.000580181016477141,10.6755555555555,74.5555555555555,0.0348108609886284,0.0151878497202239,0.000274976792302473,-0.000734585022773817,9.79529267588606,29.1074744263348,-15.2548386766828,25.4061652277595,-0.471557068342406,3.70176262815371,0.0294260843347461,0.407356128523567,60.1397144294876
-0.707177743941282,-0.10547137509261,0.415967534123625,11.9861606106953,75.0572155689299,28.5287385604166,-46.5355362976835,0.266729891474136,-0.477252034068952,0.101281698558498,-0.181220396348748,0.016662355090747,-8.60778239556127,-103.966241390401,24.4063895464884,-0.000781964478547104,-0.00675427484706674,0.00131507697068152,0.000580181016477141,8.93333333333333,68.3333333333333,0.0348108609886284,0.016631855805678,-3.99819944101875e-05,-0.000364909534554917,15.9716250271054,37.7495010497949,-15.1622123233249,24.7158854606991,-0.425049736348305,4.68858029931415,-0.0299264166439624,-0.940833530112591,27.4240830506468
-0.712066263771893,-0.13198844079609,0.355130741085043,11.9571752286736,75.2471168687348,26.6705220114678,-48.5845400514003,0.192347265635167,-0.552790769135551,0.0730374000039712,-0.209903688469561,0.0144639750181606,-2.7334828211974,-108.988018731868,22.0064121614706,-0.0116785817938201,0.00800734292295114,0.00121644619788041,0.000580181016477141,8.33833333333334,66.2083333333334,0.0348108609886284,0.0171250096696836,-0.000597128136647586,0.00043260836214041,21.3285190850288,45.2573614535172,-15.094280498136,24.3975632333727,-0.348609976398615,5.59016341269391,-0.0785880723349684,-3.11160717272464,-3.08960047064328
-0.667698111133175,-0.153962180892867,0.323735586256082,11.8256298532504,74.9176680310644,24.7048840616018,-50.2211244704885,-0.0331739402271614,-0.300950192317194,-0.0125966872161037,-0.114275705999556,0.0154282442109338,3.16893795001858,-113.287769535501,19.7940386988113,-0.0184710195835702,0.0171487893865286,0.00116938707098837,0.000580181016477141,8.05444444444445,65.1944444444445,0.0348108609886284,0.0173603053041438,-0.000944426789197535,0.000926488319606372,23.1677144862033,48.0338901217825,-15.2697940862062,25.0158959971226,-0.264317150181669,5.93964612676525,-0.0948770979506246,-10.6644153481799,-29.7404634205957
-0.634662817205961,-0.161036670267896,0.33867815442726,11.5299032226178,74.1447186951084,22.6323824092098,-51.5198576110245,-0.421890894873195,0.14238137859462,-0.160198867112219,0.0540645361772735,0.0178966730846581,8.60961925575316,-116.816696815736,17.9090884724158,-0.0180612247302018,0.0183411022472426,0.00116036203295428,0.000580181016477141,8.00000000000001,65,0.0348108609886284,0.0174054304943142,-0.000923473899410084,0.000990904758217238,22.4502013157827,47.9160863033807,-16.1667071245946,25.752668165771,-0.125551417847433,5.95743956148555,-0.102828358959347,-20.4049469904923,-51.4713215812399
-0.588397490277716,-0.179885593148176,0.358336307221566,11.0924072024824,73.0547446643794,20.5368102304844,-52.5250857331605,-0.658918471625811,0.327179735921668,-0.250202111390664,0.124235492336188,0.0195367885120578,13.7577531391341,-117.94364517337,15.1881327496101,-0.0163103181621593,0.0167185687439181,0.00116036203295428,0.000580181016477141,8.00000000000001,65,0.0348108609886284,0.0174054304943142,-0.000833949709326281,0.000903245022878656,21.4775246830569,48.0370317135274,-17.6632250205454,25.6836913906852,0.102526878095026,5.94915607047107,-0.117684244908889,-26.3803626505859,-66.7806951793301
-0.548095678536256,-0.187729230905177,0.410907898312271,10.5902945054202,71.7409340798541,18.4145099693754,-53.3333850291023,-0.639428720259765,0.231308433470862,-0.242801534305259,0.0878315921149986,0.0200044707501262,17.5566698302632,-116.70649099421,11.6728392911123,-0.0134646221086474,0.0135574023476315,0.00116036203295428,0.000580181016477141,8.00000000000001,65,0.0348108609886284,0.0174054304943142,-0.000688448721971966,0.000732458404856956,21.0731077082668,49.11904164775,-19.31716692537,24.8410241972012,0.358908666962372,6.01819332607433,-0.138537218863206,-28.630459647059,-77.435138029383
-0.517679399360729,-0.193252393827486,0.452378314047922,10.0788025912045,70.2552356858398,16.3449165534341,-53.91715952033,-0.508858229520395,0.0620622844266236,-0.193221785254215,0.0235660635874347,0.0195085425903694,20.2863565504112,-112.451420978785,7.50112837229668,-0.0111729153903877,0.00966298578732817,0.00116036203295428,0.000580181016477141,8.00000000000001,65,0.0348108609886284,0.0174054304943142,-0.000571273316038576,0.000522056878925504,21.6440128182792,51.4370634812703,-20.8278070094827,23.5352402636103,0.622571086208043,6.25742721422319,-0.170598935052388,-27.3156352247826,-84.6946090490204
-0.507152365376906,-0.193244192579591,0.48639917433192,9.61752911838443,68.7042846652967,14.371920972403,-54.3395755393775,-0.374571238207573,-0.13154770044219,-0.142230820202247,-0.0499508115442748,0.0188179682459765,22.4525764028329,-106.307218819643,3.91674964649374,-0.00934185150411205,0.00606139291302884,0.00116036203295428,0.000580181016477141,8.00000000000001,65,0.0348108609886284,0.0174054304943142,-0.000477650666833596,0.000327475579056188,22.5795556206369,54.0539088493529,-22.1215950582906,22.2088108730528,0.852004532816442,6.53146524123213,-0.193521499559806,-23.775562914683,-88.3567633665884
-0.500014510013796,-0.181693180571148,0.527560879877484,9.24077983705915,67.1013925642829,12.5224963191905,-54.5870901094417,-0.289451675869153,-0.32599119150275,-0.109909531401261,-0.12378418259773,0.0183633303697773,23.7032025546663,-98.7664001739026,1.12126438671318,-0.00808717553233574,0.0022693850381606,0.00116036203295428,0.000580181016477141,8.00000000000001,65,0.0348108609886284,0.0174054304943142,-0.000413498842720866,0.000122606831488463,23.5191732899704,56.4282711676587,-23.1671373251795,21.1269185350347,1.05238301645148,6.77323453377214,-0.205094130758262,-19.5449366276263,-91.6317325745843
-0.471504369418795,-0.17350864417016,0.572680028382487,8.92954399434556,65.3936391142754,10.8323082232435,-54.5698014593822,-0.251265845456763,-0.533610550409263,-0.0954097475800368,-0.2026206459857,0.0183106984567724,24.1919426925828,-89.0850197024974,-0.992620113715565,-0.00725020830184194,-0.00154342190185168,0.00116036203295428,0.000580181016477141,8.00000000000001,65,0.0348108609886284,0.0174054304943142,-0.000370704547009008,-8.33856158623977e-05,24.2008929466977,58.519392438511,-24.2941614117517,20.3918903674292,1.23759525110758,7.00521338937647,-0.214953868858303,-14.2350476301157,-92.4554577533955
-0.46679375339701,-0.165745211401864,0.593667197094179,8.72840679646027,63.7732341465851,9.32805134493401,-54.4512321690317,-0.24600025866407,-0.721886959358058,-0.0934103182272798,-0.274112275181962,0.018047527051694,23.513333116006,-78.3146407341231,-3.0849519503051,-0.00692984679457023,-0.00528311566516404,0.00116036203295428,0.000580181016477141,8.00000000000001,65,0.0348108609886284,0.0174054304943142,-0.000354324401434141,-0.000285428017370664,24.7062570506876,59.9792316564223,-25.039307859864,19.5205372021689,1.39556945475933,7.15944584697439,-0.225396136446078,-9.2947002958902,-92.6836393096894
-0.420826118888293,-0.172738901707548,0.624303238741874,8.59603224139823,62.1191932509182,8.03209117817064,-54.0935495788035,-0.258449103701158,-0.905877240483619,-0.0981373481206279,-0.343976391601997,0.01843480984728,22.9205400346447,-66.3303597554237,-4.7900819612144,-0.00681901428399768,-0.00863104226650435,0.00116036203295428,0.000580181016477141,8.00000000000001,64.5521946368806,0.0348108609886284,0.0174054304943142,-0.000348657513819997,-0.000466304627440755,25.1186474287135,60.8560440869233,-25.3329122247686,19.2842141774326,1.46911322325846,7.23884793032757,-0.226537442984523,-5.44431124155169,-87.2498357625287
-0.424732527648074,-0.145017896383114,0.684871170750584,8.54206959048031,60.6768189444402,6.97868246442848,-53.7047596946885,-0.280849250543377,-1.07909844756929,-0.106643049928555,-0.409751314626292,0.0183750622350441,22.0725534803959,-52.5860277265741,-6.67705018905153,-0.00689601755381158,-0.0118545246016192,0.00116036203295428,0.000580181016477141,8.00000000000001,63.7729739609296,0.0348108609886284,0.0174054304943142,-0.000352594705837959,-0.000640457954805514,25.693174884717,61.8942980704269,-25.5586616880363,18.7957231580703,1.54366857109367,7.34883445889984,-0.237965301776099,-2.41301428253595,-81.3254364385716
-0.400194054986826,-0.195318020461444,0.896510544472751,8.49701174336968,59.1109915167538,6.16636254413109,-52.9527205566705,-0.307297619237289,-1.23123322999674,-0.116685927727576,-0.467519377624113,0.0206910531088718,17.637080841459,-36.3693528556349,-6.22682325960005,-0.0071248168562082,-0.0143392704284242,0.00116036203295428,0.000580181016477141,8.00000000000001,62.5629573283419,0.0348108609886284,0.0174054304943142,-0.000364293258240842,-0.000774699966520577,26.5921858879605,63.350325538894,-25.7432956029939,20.4675894669096,1.51912382209998,7.51314214534842,-0.218406970755936,0.0548880043827597,-72.7419798515596
-0.345499170158582,-0.179140182133114,0.880502018197959,8.56392315874846,58.2453368350799,5.76854295117715,-52.4839999561295,-0.333920284744251,-1.3173008947621,-0.126794988874782,-0.50020067641002,0.0311283678982453,10.6757499861514,-18.9210403098355,-2.6022094146486,-0.00736554147110429,-0.0146659444052568,0.00116036203295428,0.000580181016477141,8.00000000000001,58.8156299528998,0.0348108609886284,0.0174054304943142,-0.000376601554168878,-0.000792349003839355,25.7705004639038,61.9500801131258,-25.5050888479309,29.0540484613498,1.32781689530997,7.42388662028099,-0.201454419090534,0.440555625570669,-61.2552873488694
-0.126065992607381,-0.239997193066574,1.10619438756615,8.46492903043135,56.6850545458861,5.44014694534679,-51.2524354367897,-0.336591266695807,-1.31317114033561,-0.127809204369632,-0.498632541167912,0.0384462198901069,7.20597793974639,-10.5119706470623,-2.21263847106017,-0.00717349695812207,-0.0143471405481793,0.00116036203295428,0.000580181016477141,8.00000000000001,53.2982317066968,0.0348108609886284,0.0174054304943142,-0.000366782281228465,-0.00077512516120124,24.408561951893,58.8701092191223,-24.3511898687312,34.9750366249344,1.16383815198226,7.16553037488302,-0.202758874829351,0.135037089745197,-50.8280685357467
-0.293517944744427,-0.181209985628309,0.865343626228527,8.64977013977336,56.8424387117249,5.54048313490727,-51.3102075397118,-0.36039021814926,-1.21115144266021,-0.136846055147006,-0.459893994805961,0.0540192201186842,12.46530717972,6.08229024165156,-8.57662730837744,-0.00762338061558346,-0.00938027297687988,0.00116036203295428,0.000580181016477141,8.00000000000001,50.629288003174,0.0348108609886284,0.0174054304943142,-0.0003897849192911,-0.000506782907639275,22.5596021382461,55.4422400419501,-23.5381447363014,48.071931372623,1.11648456698348,6.9646888047418,-0.218640299352334,1.31887078839123,-39.5564259223356
-0.251957949974062,-0.192424112722034,1.0020858358038,8.39777319723659,54.7195361987829,5.59505667645277,-49.1331528749716,-0.347180046748938,-1.01531608858329,-0.131829937192325,-0.38553211062007,0.0527602715126905,5.15384100426048,14.1230228695382,-5.05411266815545,-0.0072772894960092,0.0027043358939441,0.00116036203295428,0.000580181016477141,8.00000000000001,49.7555867183447,0.0348108609886284,0.0174054304943142,-0.000372089213683163,0.000146105684871243,19.0611673845218,49.6809992405113,-22.7244378106569,46.6857214263941,1.01990575479224,6.28725646414535,-0.226291062902876,0.877206048656301,-31.5235829360922
-0.0741163700388978,-0.170348592927491,1.55543617969452,8.88829998023013,56.5163935179076,6.24557542962087,-50.2784765001911,-0.405097500931694,-0.567580692610074,-0.153822141003432,-0.21551966410233,0.0828187271790571,2.45532805843892,19.5005793467105,-1.98795048605409,-0.00861715543224922,0.0100175612914428,0.00116036203295428,0.000580181016477141,8.00000000000001,48.8277816095462,0.0348108609886284,0.0174054304943142,-0.000440596817088222,0.000541213336887417,15.4044889673303,44.4978536836405,-22.7126164646153,72.1210014604103,0.617533324650082,6.1931285769943,-0.412262885438674,6.62666194795344,-30.7995858866618
0.191879211233857,-0.194506440639775,1.42618005529156,8.41577324136635,52.1767906621677,6.16529102190908,-46.0175515058072,-0.426280869008663,-0.0799413884589212,-0.161865812030206,-0.0303550515598261,0.112453577983014,6.13372091723573,21.3901684684185,-7.94444152409887,-0.0094757908274604,0.00889290002484521,0.000958265645548075,0.000580181016477141,8.00000000000001,48.401165807062,0.0327898971145664,0.0450769947431464,-0.000484499010235803,0.00048045187416662,9.72534290751457,34.1631422233582,-20.4094303848221,96.6747766771228,0.516045062148286,5.48408091300028,-0.518915732588119,11.5681358781228,-27.2622650482744
-0.190090194135188,-0.26281028707926,0.852673659057608,9.87763746541598,58.7995059587422,7.60871596925637,-51.1994066609544,-0.604905657096835,0.277759532429432,-0.229692563063755,0.10546983347007,0.177433959245214,8.81372893729111,21.3980473109408,-10.0167490239348,-0.0125326702717733,0.0126511054740152,0.000580181016477141,0.000580181016477141,8.00000000000001,48.401165807062,0.029009050823857,0.096835572101418,-0.000640797845039939,0.000683494396461069,0.618050047003924,22.6763704400271,-21.8023156813288,151.422292460906,0.104728991784355,4.95419766407794,-0.974555680226586,14.3442640647464,-21.0550776160587
