accel_x,accel_y,accel_z,angle_ankle,angle_knee,angle_shank,angle_thigh,current_ankle,current_knee,current_qaxis_ankle,current_qaxis_knee,ground_reaction_force_vertical,gyro_x,gyro_y,gyro_z,impedance_current_desired_ankle,impedance_current_desired_knee,impedance_damping_ankle,impedance_damping_knee,impedance_equilibrium_angle_ankle,impedance_equilibrium_angle_knee,impedance_stiffness_ankle,impedance_stiffness_knee,impedance_torque_desired_ankle,impedance_torque_desired_knee,loadcell_force_sagittal,loadcell_force_x,loadcell_force_y,loadcell_force_z,loadcell_moment_x,loadcell_moment_y,loadcell_moment_z,velocity_ankle,velocity_knee
0.15631288667823,-0.163746264201325,0.268272124277166,-0.214860766705403,1.83129468377372,-4.74990659220899,-6.58453088011827,0.140795486788197,0.184241576458405,0.0534623471425282,0.0699595373644578,0.13565734472828,0.760077414145873,22.1431428678514,-11.9589677025232,0.00642541071306574,0.00371350427326974,0.00232072406590856,0.00158786383456902,0,1.31578947368421,0.0262608249563337,0.0156343516019103,0.000328532487422289,0.000200627476170154,-12.2461376207025,-7.0388428221354,-10.2798110877495,116.101012967672,0.0750008342689799,-0.884982924895925,-0.229265893799444,-23.6562894571953,4.89884617769066
0.0841530163941109,-0.355808601069539,0.911586692699343,-0.887801168636936,3.81677528307653,-9.18992801370271,-13.0137780843525,0.444117611392836,0.434628061829133,0.168638714592552,0.165035377549767,0.319934406484557,1.37527816680096,47.3386733811023,-21.3133457350607,0.0167557252060417,0.00152016340016276,0.00232072406590856,0.00158786383456902,0,1.31578947368421,0.0262608249563337,0.0156343516019103,0.000856723457274332,8.21290414383594e-05,-30.1717369889114,-21.857646402577,-20.8116332474955,278.879051416864,0.0529524338942848,-2.85438700584845,-0.875694074030584,-45.4537879600282,13.8966265100896
0.137247043817471,-0.0341544022180425,1.27231723145231,-1.36260997044994,3.69401435272344,-7.28798938552575,-10.9884597371739,0.666097187223778,0.397629255951103,0.252927987014173,0.150986326341997,0.377364070776143,2.29343182836853,45.9916894416878,-11.0892706242591,0.014192399346309,0.00139366345523033,0.00228408105434159,0.00158786383456902,0,1.31578947368421,0.0262608249563337,0.0156343516019103,0.000725660112318125,7.52946976972896e-05,-36.83508779492,-31.2382152582784,-20.8544654725011,326.342601759219,0.191886139610054,-3.65120640572482,-1.66018383928223,-25.8052997372324,22.3368102686893
0.0748574929284776,0.0383085362362773,1.22375442015874,-1.61161773657969,4.36216587898923,-7.15968527163122,-11.5296952486819,0.854462150450098,0.402079988314106,0.324453241716721,0.15267634215186,0.487514021124206,4.62611052910481,54.0796051224906,-12.963841531896,0.0104428366327557,0.00509091185433569,0.00221323789864543,0.00159000134357709,0,1.29736842105263,0.0262180747761723,0.015480450953329,0.000533944248533006,0.000275043926593026,-47.6985364602737,-38.8271548372496,-28.6287623302169,421.387553500592,1.21685231255391,-3.85636614866138,-2.37752273629285,-9.01735817502531,30.5085042106733
-0.359328523503983,-0.0541496524183899,1.00604988808406,-1.43925511252014,4.77275757489319,-5.94704356413794,-10.7268123868831,0.738900400412927,0.488469669510992,0.280572556775595,0.185479915839049,0.558828964142669,2.70718416023122,53.1673128886346,-5.72099706545935,0.00377636148002065,0.00724613297695475,0.00227186671715259,0.00166969989373527,0,0.61052631578948,0.0246241037730088,0.00974215534194042,0.000193086089876572,0.000391482886292659,-57.1367987936727,-45.5908690403952,-35.2127667241994,480.956792896505,2.27703785339195,-3.57277406377528,-3.0172282378265,16.1156299041511,37.5230023106426
-0.217168393955475,-0.0514713832307757,0.945893267255711,-0.965387029774988,5.48823950454879,-5.39581870928891,-10.89109604851,0.388240535925765,0.673345726595537,0.147421275922634,0.255680375865615,0.619416161113987,0.762583258867328,52.7600006078916,-2.52839715914991,-0.00386802678161817,0.0108205356215611,0.00232072406590856,0.00174054304943142,0,0,0.0232072406590856,0.00464144813181713,-0.000197772954403833,0.000584595194406919,-67.4535248528629,-53.7092913779919,-41.6843982987975,532.372473329035,3.01621378378129,-3.31204304929721,-3.67561786637691,35.4958905013291,43.0592426576059
-0.0310020382773955,-0.108731729954238,0.952617100746499,-0.279659682538161,6.0991773198903,-4.44624599381369,-10.5521229969941,-0.0534909727136259,0.857267912214991,-0.0203113964619433,0.325518635309199,0.646847373965621,-0.572525084288284,51.1262486659794,-1.84664444863193,-0.0129089826483806,0.0124212912407849,0.00232072406590856,0.00174054304943142,0,0,0.0232072406590856,0.00464144813181713,-0.000660038769341196,0.000671078347842823,-72.0014179868692,-56.3069358236066,-45.5184460035179,554.110874325854,3.50748300677425,-2.55856618254565,-4.09857710289926,52.6698267329287,42.0742656568757
-0.018917966719803,-0.0567447660695678,0.974358043983781,0.54703322176915,6.72544401825043,-3.77238410995329,-10.5028973004477,-0.527785378287896,1.01278531746455,-0.200408732939183,0.384571135469695,0.655816690336554,-1.07231995526052,50.1210863616863,-2.7778771426338,-0.0179477505588604,0.0122332142774968,0.00232072406590856,0.00174054304943142,0,0,0.0232072406590856,0.00464144813181713,-0.000917671943171997,0.000660917216013289,-73.2870109534418,-55.4571489044755,-48.1863359316675,560.480515350485,3.74513580069168,-1.83263946344742,-4.38634124335814,56.0421525658205,39.6714294675657
-0.0544287913483592,-0.0784720016483765,0.973438645338568,1.32836718606587,7.29747073365132,-2.97140486650606,-10.2743735055459,-0.974609217877988,1.06403317652417,-0.370075046602054,0.404030785021376,0.646206500519292,-1.15934307228829,48.124259612877,-3.48157715481311,-0.0193769744207663,0.0123084716330889,0.00232072406590856,0.00174054304943142,0,0,0.0232072406590856,0.00464144813181713,-0.000990748434528481,0.000664983104243003,-73.487294042448,-54.1296301352512,-49.7970977616784,550.869676935077,4.02723278012331,-1.52536112630918,-4.69337722574994,50.7406270330631,38.895725805101
0.0144410722786643,-0.0593196401844582,0.983517955629678,2.0198706041791,7.90708841016518,-2.31763874423985,-10.2325257058929,-1.28479868261546,1.0639002332704,-0.487859055323135,0.403980304295429,0.63370967459148,-1.67009342532892,45.9359906141679,-3.80390208858033,-0.0195301885145781,0.0125334558238441,0.00232072406590856,0.00174054304943142,0,0,0.0232072406590856,0.00464144813181713,-0.000998582300657194,0.000677138202782759,-72.9576894885948,-52.4843109377921,-50.6934430163837,539.145898667564,4.22907869284566,-1.39371378015924,-5.06940399120148,43.2623403526405,38.0562121510428
0.0261533919867094,-0.0788520186846784,0.957761792108296,2.62330071972636,8.45925727731675,-1.63126137424747,-10.097725776922,-1.46066807826181,1.05660994168024,-0.554639538819284,0.401212061444366,0.621588210753133,-1.76074614110424,45.3543664287049,-4.36116120805703,-0.0192281818959855,0.0125059917655959,0.00232072406590856,0.00174054304943142,0,0,0.0232072406590856,0.00464144813181713,-0.000983140644076011,0.000675654417041248,-71.4812561111387,-50.2070106699648,-50.8827511778722,527.755452310789,4.36279027528686,-1.20160890204227,-5.49404788647368,36.5482797958214,35.8383876481004
-0.0545494803534757,-0.0778427067447443,0.95701906190482,3.13984624958306,8.95192343810441,-0.989152372365394,-9.94905263526531,-1.53323500560374,1.04442690747652,-0.582194386983253,0.396585964268193,0.617154979101103,-2.36304457532223,44.7136755238209,-0.959727813411058,-0.019850752348528,0.0122494620716009,0.00232072406590856,0.00174054304943142,0,0,0.0232072406590856,0.00464144813181713,-0.00101497279123409,0.000661795026750683,-70.4886914475124,-48.8228650588751,-50.8631983801294,523.053540516441,4.39574638988716,-0.893604056874118,-5.94499158940306,34.0491238948825,33.4173332376197
-0.0159908304849634,-0.086963827555692,0.962627432494,3.66052489607917,9.42633472184312,-0.316972170808325,-9.75174989238007,-1.57462972461679,1.03059545918713,-0.597912638244194,0.391333937326141,0.620622686889692,-2.12629917872332,44.6990335952824,-0.987237272308912,-0.0214333016530702,0.0121728969950645,0.00232072406590856,0.00174054304943142,0,0,0.0232072406590856,0.00464144813181713,-0.00109588884200614,0.000657658486992577,-70.7667356033383,-49.3735695512503,-50.7057077038617,525.089961121099,4.31748013117106,-0.52274122388639,-6.36103028845655,35.0368952700116,31.817379726402
0.0021149240679713,-0.118437415220335,0.972844848847688,4.2318378076994,9.87330264484438,0.350019870007467,-9.53067928618795,-1.63385893866666,1.03226952187286,-0.620402938712964,0.391969606284603,0.630776839568692,-2.46876503750394,45.489037229469,-1.33644689347407,-0.0241294242452127,0.0120622598846395,0.00232072406590856,0.00174054304943142,0,0,0.0232072406590856,0.00464144813181713,-0.00123374210946977,0.000651681155986094,-71.5264383933744,-50.8400015081297,-50.313657736024,532.848004856725,4.13029069352671,-0.0959446921916916,-6.57979616847088,38.485438836592,29.9867270861086
0.0397002281399396,-0.100561788174528,0.971286949680884,4.81620903481155,10.3254070537086,1.03793734703023,-9.2946851007285,-1.73219986007503,1.04493239970344,-0.65774459360961,0.396777907927255,0.644971076704731,-2.26680265642728,47.2417378497233,-1.08573429900515,-0.0262053458742492,0.0122754943382115,0.00232072406590856,0.00174054304943142,0,0,0.0232072406590856,0.00464144813181713,-0.00133988438222664,0.000663201457863924,-72.7928269263749,-53.3230318723509,-49.6215712104059,544.045854629199,3.84009474246168,0.291598608418388,-6.66013824730258,37.5492399716863,30.8570735574758
0.094354166645712,-0.108552257779383,0.976715366916258,5.39669610796612,10.8328389459731,1.76921769383568,-9.07112503403197,-1.88719908086518,1.07757928740465,-0.71660033066296,0.409174464686427,0.660197639857528,-2.26550389759202,50.4712258938211,-0.773293913592523,-0.0277298157922185,0.0133871472290861,0.00232072406590856,0.00174054304943142,0,0,0.0232072406590856,0.00464144813181713,-0.00141783082277595,0.000723260124142782,-74.6424330399736,-56.5115152084446,-49.0488259252117,556.108726428578,3.61287981342966,0.522926320857797,-6.69316133112308,38.2400004794764,35.6860349197681
0.074934275183425,-0.0896726636068141,0.948211176778562,6.0193370505882,11.4345262841533,2.55133640520951,-8.88927740688277,-2.07514722048334,1.1615816580385,-0.787967310629967,0.441071537540602,0.675179689447009,-2.41912857714773,53.9416382600991,-1.70799116364978,-0.0310505858334154,0.0151176180827015,0.00232072406590856,0.00174054304943142,0,0,0.0232072406590856,0.00464144813181713,-0.0015876224346294,0.000816751332015061,-77.0221528745103,-60.249282318535,-48.6764908797714,567.948711927224,3.47555781187732,0.577451560704277,-6.69041969838867,43.3951836127313,42.5074786151429
0.0408362504214167,-0.0912178423009041,0.934376082309235,6.69349710466169,12.1472557373368,3.40258106923387,-8.75136325694202,-2.27993677288575,1.2959184980474,-0.865729250245056,0.492081430957075,0.68594473260139,-2.83974724951446,57.5235631185454,-0.711779389388473,-0.0340335235335241,0.0167909435928131,0.00232072406590856,0.00174054304943142,0,0,0.0232072406590856,0.00464144813181713,-0.00174014061380971,0.000907155179486397,-80.9997885418347,-65.9754561400567,-48.5755433651589,576.123544488221,3.35828555700846,0.329554911517071,-6.68915225855339,44.895474951935,48.1582911838657
0.0377192256172693,-0.0881900837609657,0.940887730687134,7.3807506050684,12.9278044895358,4.30479786258158,-8.63065504692836,-2.48867908058331,1.47263323752845,-0.944992115639651,0.559182905321446,0.6930330635936,-3.04602841134877,61.0269424822144,-0.367027117418943,-0.0360645800976312,0.0182049018044897,0.00232072406590856,0.00174054304943142,0,0,0.0232072406590856,0.00464144813181713,-0.00184398892715482,0.000983546330955026,-85.9729267077396,-73.1683680675723,-48.4157108794211,581.094065368354,3.23752444157994,-0.0235393252266146,-6.64791624805707,44.7172816065856,52.9548995770142
0.0319040617851939,-0.087445584199238,0.949943067240705,8.1105546087334,13.7915559999716,5.25385681047199,-8.54437132654208,-2.73802220758531,1.63587035517623,-1.03967177560232,0.621166706431204,0.697628082173955,-3.64689645509493,64.3930657092806,-1.14749208951043,-0.0390880346287326,0.0198336033443279,0.00232072406590856,0.00174054304943142,0,0,0.0232072406590856,0.00464144813181713,-0.00199857873970814,0.00107153930344849,-91.0372111760007,-80.6140059645648,-48.1320527611589,583.909766515916,3.08673615004344,-0.278473174505668,-6.53962031464742,48.4235907332614,58.3546012563016
0.0199300049196645,-0.0805497527678703,0.924077971569937,8.85225514646129,14.6925801719515,6.25257321909614,-8.44640621998096,-2.9751394746398,1.79223760932234,-1.12970907675406,0.680541908105523,0.701313315979353,-3.68904427428005,67.9589891410766,-1.11433050581618,-0.0424345888797984,0.0211429565241182,0.00232072406590856,0.00174054304943142,0,0,0.0232072406590856,0.00464144813181713,-0.00216968870317874,0.00114227901573793,-95.8774616177024,-88.068884344444,-47.5223222012166,585.951775911159,2.88495206577718,-0.369386417737053,-6.40653715111262,51.1359187264798,61.4438861645153
0.000217238312889073,-0.0954489456254129,0.918705289515532,9.65547005614533,15.6830918201662,7.31716390950805,-8.37303453850014,-3.20206785200224,1.96937968598774,-1.21587748998801,0.747805649382122,0.703702977673205,-3.48903311889664,71.9735038915078,-1.075449538658,-0.0453911753761974,0.0224670451672187,0.00232072406590856,0.00174054304943142,0,0,0.0232072406590856,0.00464144813181713,-0.0023208595402376,0.00121381483289127,-100.893521447631,-96.0910161590171,-46.5939702278031,586.857852753182,2.65395865302443,-0.452412032620115,-6.23826722037542,53.1112671671398,65.9548616610716
0.0141930889130623,-0.0782326908929232,0.937583114945834,10.525698692569,16.7579165054943,8.43318941012529,-8.33163946434532,-3.46566959762104,2.15259225278023,-1.31597138044665,0.817374454960874,0.704702808733738,-4.19721186628243,76.1572889200506,-0.973580036861725,-0.0494539065371122,0.0244472459959197,0.00232072406590856,0.00174054304943142,0,0,0.0232072406590856,0.00464144813181713,-0.00252858776705885,0.00132079806633792,-106.049192790457,-104.597497419252,-45.3787093037314,586.56336893269,2.38399816627653,-0.50776974819043,-6.02779872311641,58.0255519699952,72.6075076717702
0.00665512950703418,-0.0753391057663163,0.934986640972065,11.4086083761761,17.9427068901831,9.60020125707256,-8.34994213623084,-3.74338398312483,2.3525257685609,-1.42142407089129,0.893292478115778,0.703668131550434,-5.05158042541846,80.3875067938965,-1.01878186917316,-0.0527888141115473,0.026469065003127,0.00232072406590856,0.00174054304943142,0,0,0.0232072406590856,0.00464144813181713,-0.00269910223370993,0.00143002978248502,-111.453584128849,-113.384235438703,-44.2349348114054,584.497455597051,2.12181098455536,-0.41720247766763,-5.78915039125532,58.0949602413844,79.3853240385206
-0.0174897425179435,-0.0789510832942978,0.945056160613814,12.2367049347203,19.1989399806896,10.8069781829039,-8.39864434276986,-3.97918414047756,2.55706613402161,-1.51096124396573,0.970959797377013,0.701076262174472,-5.48184804945677,84.0581059132703,-1.95573200293425,-0.0545345101582673,0.028721797561234,0.00232072406590856,0.00174054304943142,0,0,0.0232072406590856,0.00464144813181713,-0.00278836000883487,0.00155173693948835,-116.82606401067,-122.249813513765,-42.967190648792,581.109270924056,1.82574249194123,-0.128577563306769,-5.50120249384741,55.5770629883576,86.3791436755666
-0.0820593464383239,-0.0991149876787909,0.96502966803296,13.0958375044442,20.6051630127015,12.1328261290973,-8.47912899804974,-4.21315847502508,2.79764555437053,-1.59980512228434,1.06231173471141,0.698821810722223,-5.52339079027546,87.2181336279192,-2.88762196420759,-0.0573127645677034,0.0308519283150282,0.00232072406590856,0.00174054304943142,0,0,0.0232072406590856,0.00464144813181713,-0.00293041269193697,0.00166682035547426,-122.707941799013,-132.209746461178,-41.3254890418741,577.920409042623,1.4442132440293,0.337917756484227,-5.13344651408472,55.4849826410843,92.8575947361259
-0.0953116871205698,-0.0997673170360203,1.01927505036479,13.7661145559954,22.0854138995793,13.4609366601276,-8.63118187837314,-4.32635363349488,3.03179187865647,-1.64278717373369,1.15122092034428,0.700287789529768,-5.70850658490807,89.0614596081522,-3.89558079041007,-0.057044824082249,0.0331924068137491,0.00232072406590856,0.00174054304943142,0,0,0.0232072406590856,0.00464144813181713,-0.00291671284330496,0.00179326811469965,-128.879405924765,-142.788592595485,-39.4744111739048,577.916541856907,0.981755415408796,1.05580370440133,-4.72807900631918,41.7426284695923,100.018066109333
-0.0906636264941524,-0.13133643400104,1.00291029674799,14.234242494279,23.7245729320056,14.8548216673556,-8.87415435579348,-4.31137563026284,3.29441842382402,-1.63709978114349,1.25094451125535,0.706590332049986,-4.85524336313722,91.5048053793769,-6.91463665678194,-0.0530690247896429,0.0356605183334434,0.00232072406590856,0.00174054304943142,0,0,0.0232072406590856,0.00464144813181713,-0.00271342945965517,0.00192661143374928,-135.256100040609,-153.914674755921,-37.366336315201,582.150312325719,0.423883106272388,2.15645661425567,-4.30326400956303,26.368475894651,107.381541070669
-0.103047590767361,-0.139371895467641,1.05118804947161,14.6124069763521,25.4071869948855,16.25592846894,-9.15858298824152,-4.22043675376428,3.52917463992102,-1.60256880365959,1.34008528277542,0.713234527901994,-3.91400152792849,93.6697660271709,-7.41611813117218,-0.0533886967964177,0.0380745933302259,0.00232072406590856,0.00174054304943142,0,0,0.0232072406590856,0.00464144813181713,-0.00272977435093682,0.00205703535095766,-141.413594874462,-164.69045903931,-35.2985647360879,586.863473480473,-0.183875344911173,3.23963514350247,-3.90422037766072,25.6450938225622,113.75061176531
-0.132032539012366,-0.156760333963589,1.00589133493308,14.8676148315005,27.2149989247559,17.7055253865481,-9.51573627228678,-4.05212642997437,3.79830794813617,-1.53865862327388,1.44227959794591,0.719555298760727,-3.50285018794089,95.8904261372538,-7.53572465611503,-0.0524331474542204,0.0405050745343687,0.00232072406590856,0.00174054304943142,0,0,0.0232072406590856,0.00464144813181713,-0.00268091692901226,0.00218834563741031,-148.192600306698,-176.104955530583,-33.4710296664846,591.268671399583,-0.774386053918317,4.04071759382807,-3.59675507524708,16.172684080871,121.565032835153
-0.16611570884488,-0.168579972907047,0.951123828722184,15.0355456348299,29.1810025830923,19.1961608651924,-9.99190443085518,-3.89883363725107,4.02557270344458,-1.4804508448431,1.52857573938287,0.720786450077176,-3.08537398602529,99.1769600512759,-9.25771994991918,-0.0496616793473612,0.0437813382053921,0.00232072406590856,0.00174054304943142,0,0,0.0232072406590856,0.00464144813181713,-0.00253921123086809,0.00236535055331058,-155.401871386963,-187.873076134025,-31.8983579995774,591.143314285888,-1.27695376933842,4.36860913830813,-3.37648069506448,5.39778864902619,131.544177784986
-0.172175378277168,-0.157441060077046,0.944289719595052,15.1257705620723,31.210813241815,20.7181267006777,-10.5001422970336,-3.74825821837857,4.30197334612749,-1.42327489766943,1.63352958020989,0.713237626946732,-2.80945019294147,102.106880584945,-8.3581857897848,-0.0484498086640664,0.0465164791155813,0.00232072406590856,0.00174054304943142,0,0,0.0232072406590856,0.00464144813181713,-0.00247724804940058,0.0025131205240444,-162.361176976388,-198.838705158306,-30.7746733245593,583.269643150554,-1.67688011036688,4.16498057333405,-3.24871165466221,3.90257394070066,139.091991118233
-0.224584610379972,-0.125121020167206,0.881139799814646,15.2657488980734,33.5033126052379,22.3197932433778,-11.1908536905587,-3.68187510440039,4.5464069030649,-1.39806814449245,1.72634499618931,0.697199926721998,-2.87908046458855,105.138096650822,-8.23982249631471,-0.0509361778862479,0.0499547672864376,0.00232072406590856,0.00174054304943142,0,0,0.0232072406590856,0.00464144813181713,-0.00260437658665541,0.00269887904949703,-168.934618130015,-208.525216782903,-30.3844113308838,567.815044221711,-1.90649069600456,3.40992369372641,-3.24318441459467,12.3848580688949,149.420702860317
-0.23110356713753,-0.130476385883832,0.834335727960064,15.3997069412241,35.8048553968371,23.9134056863648,-11.8986978875142,-3.65720001341138,4.80892503247083,-1.38869860921599,1.82602741986401,0.673815186048228,-2.26595304771375,107.895131465123,-8.4336225889274,-0.051433440675378,0.0526784431202605,0.00232072406590856,0.00174054304943142,0,0,0.0232072406590856,0.00464144813181713,-0.00262980172884643,0.00284602960278409,-174.024531921649,-215.966798056244,-30.1410551729826,545.986932903358,-2.00422057412446,2.27314213784853,-3.27220151416806,8.32325500672633,154.939691639796
-0.256697990277955,-0.151520536124168,0.798031484215024,15.4497501734979,38.2620145669729,25.6079002320893,-12.6609314259052,-3.59514575316488,5.05655282998822,-1.36513559254088,1.92005574119032,0.645933501655952,-1.94486999371165,110.85832899289,-9.71720948336331,-0.0493179518535514,0.0554994852779052,0.00232072406590856,0.00174054304943142,0,0,0.0232072406590856,0.00464144813181713,-0.00252163637790077,0.00299844051350576,-178.319357258924,-222.705137126985,-29.4765163422377,520.105894295256,-2.10429741249779,0.805493424420175,-3.23310479958235,-0.0823886255628878,162.680467393652
-0.259816960087788,-0.142456526879456,0.818401514994826,15.4580278746608,40.81156250002,27.2932933294863,-13.5250137516426,-3.5481172074243,5.30823699396093,-1.34727808520633,2.01562433114681,0.618093158338478,-1.87718649716524,113.827620197592,-11.4667315773801,-0.0479308915391132,0.0583764376314745,0.00232072406590856,0.00174054304943142,0,0,0.0232072406590856,0.00464144813181713,-0.00245071571684786,0.00315387205398173,-181.328917017045,-228.033730438177,-28.404083257754,494.45113035057,-2.26063388520102,-0.715223372365444,-3.10616054012097,-1.24144618293982,167.905699999235
-0.315104212985725,-0.129950749279705,0.758570904865631,15.5124351020172,43.4378747462005,29.0654954032093,-14.3806323425866,-3.56115896486464,5.51177447131169,-1.35223025362827,2.09291083740401,0.590294212413617,-1.26944508230863,116.647982715154,-10.7817202020369,-0.0501779760605223,0.0607769926824608,0.00232072406590856,0.00174054304943142,0,0,0.0232072406590856,0.00464144813181713,-0.00256560958126115,0.00328356553643,-184.12935290883,-232.863415069043,-27.5348130456063,468.613054149876,-2.38756254919787,-2.26243306573715,-2.95958674530609,5.96047410285484,173.231670828486
-0.360377978536093,-0.147338941631855,0.675532236326068,15.5813288460974,46.0904700383519,30.8587419882733,-15.2386913366285,-3.54146428022581,5.68284859003866,-1.34475186003028,2.15787047589186,0.56249379441137,-2.1208923472169,119.65869493124,-10.3305815827789,-0.0502568552745948,0.0635062528524597,0.00232072406590856,0.00174054304943142,0,0,0.0232072406590856,0.00464144813181713,-0.00256964269067039,0.00343101779161119,-186.726023607008,-237.27241517472,-26.7980598583095,442.399110701403,-2.45429574416809,-3.87301887090911,-2.80216704931666,2.36117367827136,177.919453553451
-0.377177338286378,-0.149167970222769,0.660992393647216,15.6005543078508,48.7886893739868,32.6993057932031,-16.097030246235,-3.48849734541155,5.90841232891426,-1.32463944932228,2.24352071359213,0.534568443588871,-2.45555158869608,122.232557944569,-10.8001717989427,-0.0492976462112705,0.0656027567040545,0.00232072406590856,0.00174054304943142,0,0,0.0232072406590856,0.00464144813181713,-0.00252059814649968,0.00354428446523645,-189.092756264658,-241.537329356033,-25.8802110999561,415.659118789332,-2.49067393318516,-5.58947852279034,-2.56319818878517,2.02231164505456,179.643776531838
-0.460932935607464,-0.1112578790188,0.662465270474439,15.6634446505637,51.6246770879086,34.5815797589058,-17.0510780962244,-3.49445131040587,6.08999727769502,-1.32690026712733,2.31247148601411,0.506722010493112,-2.63107892985896,123.759495963593,-9.33535091891136,-0.0505450521677414,0.0677654459721633,0.00232072406590856,0.00174054304943142,0,0,0.0232072406590856,0.00464144813181713,-0.00258437825332949,0.00366112690237169,-190.568167319002,-244.552663268328,-24.9514235107896,388.954221348829,-2.45155459034002,-7.23217431146685,-2.31586741414318,3.53229879805219,182.399303070933
-0.571627207519692,-0.102373670532084,0.636780989143531,15.676274320404,54.4000917248197,36.4503458763158,-17.9568090871776,-3.50443151358604,6.22941066781847,-1.3306899133663,2.36540902846751,0.479628593867119,-4.34382756380926,123.44819698076,-11.0899713627479,-0.0492343230723649,0.0696830638043578,0.00232072406590856,0.00174054304943142,0,0,0.0232072406590856,0.00464144813181713,-0.00251736042221013,0.00376472899829531,-191.188250942339,-246.232999482869,-24.1480179661777,362.89238655837,-2.31458651632552,-8.75088891832812,-2.1322378988142,-1.23024523926239,183.098857792081
-0.66740782801628,-0.0955983570634072,0.57469944258647,15.6585443075522,57.1335227859523,38.3050709780243,-18.835577515862,-3.46702715817686,6.31010946934095,-1.31648686837427,2.39605168214483,0.449605925874553,-4.26704513478824,120.504681850116,-11.2307521878882,-0.0488900329273267,0.0706038220034209,0.00232072406590856,0.00175336810347986,0.107786685256176,0.638191119756176,0.0231644904789242,0.00464999816784942,-0.00249975680077712,0.00381447430085783,-189.316818750787,-244.624680879894,-23.1097317827978,334.845803824475,-2.17597404865877,-10.0749779299806,-1.85386834538807,-1.24828036945339,178.4372043951
-0.780050056005184,-0.0688881558572749,0.495296294530389,15.599007172898,59.7560117131302,40.0792496192609,-19.6841595506864,-3.40323055369537,6.34793200520024,-1.29226225512061,2.41041351708747,0.417656244296773,-6.73295634003528,115.54630002303,-8.94733748711215,-0.0479392666849298,0.0705504456664665,0.00232072406590856,0.00180283616909528,0.523535328387199,3.09978543881604,0.0229995969268728,0.0046829768782597,-0.00245114393966668,0.00381159056652434,-185.284382341532,-240.197626635532,-21.8340597677849,305.56261878258,-2.06793381399521,-11.2684540565104,-1.44562069219554,-5.68925999687151,170.179051769414
-0.91589664563011,-0.0258535511227,0.478641016825049,15.4613048773816,62.1870919341146,41.7446948879821,-20.4521684839606,-3.28680376125259,6.29877804153047,-1.24805309944199,2.3917489538327,0.38406987167676,-10.7787707806302,109.08659899082,-6.25678297809774,-0.0456777459634015,0.0700226044651507,0.00232072406590856,0.00187429004165089,1.11459179887337,6.74984250842864,0.0227614173516874,0.00473061279329677,-0.0023355119495606,0.00378307317695221,-179.292434414012,-232.680502922829,-20.8772894563563,275.193919428332,-1.92021655836142,-12.228996726215,-0.978034682773195,-11.290527295442,161.0121004014
-1.05093681593343,0.00806729329588991,0.448895371773563,15.2089973667507,64.5389585729307,43.2942865884412,-21.2503092008737,-3.12405546101803,6.20365725867913,-1.18625491029204,2.35563003816804,0.349388241077269,-15.6664097692483,99.3399192517663,-1.4919376350444,-0.0417950976505826,0.0664695545415603,0.00232072406590856,0.00202635853965385,2.35659651157375,14.5710488569212,0.0222545223583442,0.00483199179196541,-0.00213699139345007,0.00359111448068583,-171.726403195323,-222.749162878147,-20.1086455382295,244.038385566456,-1.74260600605228,-12.9086870584615,-0.486083706795019,-16.9383073920708,145.512653972404
-1.13940112727082,0.031216014703127,0.458861925745448,14.8586305307578,66.4499032727306,44.5847232216255,-21.871606907544,-2.89605751981945,5.99217955382575,-1.09968036619123,2.2753284977729,0.315649766368709,-20.9881155609566,84.8112051264604,5.65819232007899,-0.0371640725065628,0.0628514200176447,0.00232072406590856,0.002221482576248,3.91051057466354,24.4010416449156,0.0216041089030304,0.00496207448302818,-0.00190020618580782,0.00339563949410715,-163.04028068583,-210.982293689449,-19.5914824695673,213.995155683759,-1.54364664897722,-13.238147193274,-0.0597931628995301,-22.6888957983267,129.647229969416
-1.12388426055361,-0.00967157679510696,0.487906646332446,14.4360642528003,68.2464347547821,45.6971304182692,-22.5569238785182,-2.61708197505473,5.67300491560925,-0.993748792965985,2.15413267185064,0.28131513890181,-26.9681940930043,70.6703378605811,10.8088150444644,-0.0295741109981662,0.0557725929223106,0.00232072406590856,0.00235797779433499,4.97895925457741,31.2821686131588,0.0211491248427404,0.00505307129508618,-0.00151212999190438,0.00301319555170896,-152.687998014662,-196.71444319219,-19.2189944117411,184.062594139539,-1.32576176111657,-13.245571591606,0.299773353988689,-27.8019035394951,114.880388964233
-1.03776887740647,-0.0241306044923475,0.525545698739112,13.9409347602672,69.8018922470595,46.5094695087559,-23.299346472377,-2.23051607621816,5.12521261078981,-0.846963404112195,1.9461269819643,0.246270208479592,-31.5604932133373,54.2422234863201,17.0472853030039,-0.0245834220656305,0.0496382510665886,0.00232072406590856,0.00251126772605684,6.29905254484213,39.4985092832487,0.0208315520758266,0.00530224377374162,-0.00125695510547684,0.00268177879979156,-139.567202598719,-178.208411796432,-19.1694189811502,155.395888112152,-1.10679113282566,-12.5540004006276,0.574724763082001,-30.229402965956,99.5299669905814
-1.02010915373811,-0.0269514335336701,0.578463518987136,13.4806989019438,71.0758657293662,47.0699230555434,-24.0129845751758,-1.79406798964029,4.53525696585394,-0.681236933423406,1.72211118282364,0.211621692770284,-34.4535500715491,34.7598609804651,21.0646703346794,-0.0196780107162729,0.0423226606430321,0.00232072406590856,0.00254913217134272,6.89708728133086,43.0598298352161,0.0213262327319808,0.00579936729733362,-0.00100614047830337,0.00228654337379853,-125.183861423551,-157.583187921444,-19.4535266939754,128.104470221623,-0.818437392216416,-11.4046791576248,0.638565816798306,-29.6932729214258,85.1474637824003
-1.02946802113604,-0.0676232157558821,0.613656291198699,13.0223409168036,72.1253530321612,47.233452089915,-24.8983885423459,-1.43656696416693,3.97823330962782,-0.545487951949172,1.51060019795408,0.177605528134782,-36.4421287263138,16.4239969229449,23.6363790752329,-0.0128330751048735,0.0336969246374066,0.00232072406590856,0.00241416374540436,6.26559699826367,38.8129128311058,0.0227888996103626,0.00647909516190103,-0.000656157602020357,0.00182052542482902,-109.625572771835,-135.066859344602,-19.9671124522465,102.609649134439,-0.533338250612574,-9.89284259426412,0.600920949011663,-30.4566952212774,70.609744615787
-0.996785371341805,-0.0788296696110801,0.605247148101127,12.618308122099,73.0813776533574,47.1477309132182,-25.9397448684433,-1.20024799686135,3.49893560283621,-0.455753778257507,1.32860302624318,0.14763213020546,-37.0842083978069,-4.41469816909729,25.8924038724169,-0.0130684067707307,0.0391435601541561,0.00232072406590856,0.00247340328077097,6.94670825750555,42.6031132092141,0.0230545614442232,0.00687056466880825,-0.000668190155425246,0.00211478784030809,-95.6882673454651,-114.905099072356,-20.4185463675832,80.3722658696229,-0.295722740839112,-8.525693642786,0.642306764973407,-30.2336889519471,59.1915973938417
-0.957552869634272,-0.0809965144194727,0.61378736879661,12.1874236690453,73.7132192662655,46.6876311002879,-27.0323461574532,-0.908458610315635,3.23652090907963,-0.344956579910661,1.22895987877483,0.12150622810551,-38.5132936445695,-30.2404255147799,28.815608918289,-0.0194860364460699,0.0504708902688665,0.00232072406590856,0.00233660270425425,6.31212696342435,38.3141322543701,0.0244469958837684,0.00749105299800906,-0.000996324796889791,0.00272676334522908,-82.877828204529,-96.0577957151048,-21.1491529517675,61.8397443022734,-0.119216465032255,-7.07123377680288,0.633044748335058,-28.6870333377915,37.8256494598751
-0.969459111727106,-0.0858733451927719,0.709309539863216,11.7237554605945,73.9227957021694,45.9143715488947,-28.0168998336552,-0.76087089512952,3.27774631328708,-0.288915112650263,1.24461383843723,0.0957788494385135,-37.1449714627534,-57.2415635688864,33.3913136139336,-0.0125111108067058,0.0408933790460086,0.00232072406590856,0.00215949481501386,5.48870227266519,32.5089833320749,0.0262486106191448,0.00829353495132588,-0.000639695505438251,0.00220932435412179,-69.8777442607954,-76.9746483772691,-21.8474052643865,44.242093216515,0.056718268247968,-5.51608488107872,0.559624539729776,-35.2094101564887,3.29744842621658
-0.8592610783972,-0.154358121063277,0.713109925649781,11.1568643103113,73.6367184164223,44.6994978633729,-28.9437136036472,-0.777194620352515,3.07709178245299,-0.295113497871544,1.16842203408407,0.0742434168413905,-35.2941117693858,-82.2848883862787,36.5740901974302,-0.0111241987387178,0.041685312862463,0.00232072406590856,0.00211582855956322,5.47769276855889,31.6174437696464,0.0271982753355889,0.00887554811838136,-0.000568782424254888,0.00225210973181281,-57.870209197358,-59.4272333016707,-22.4136014026012,31.0381077271696,0.166969752554654,-3.90039569652263,0.448569452365004,-40.941743030465,-21.6679407180442
-0.772510669568595,-0.216097899618882,0.699320300110972,10.5065775538132,73.0120443617768,43.1783491871969,-29.8413457450241,-0.628385899948441,2.67811575523942,-0.238608394976832,1.01692431668546,0.0568245314120117,-33.1728017693385,-105.842333797954,36.5577672503588,-0.0129261283017461,0.0510405491362495,0.00232072406590856,0.00210269814708505,5.47992624158132,31.4140219379896,0.0275982948785284,0.00913754565108525,-0.000660915429900373,0.00275753999510765,-47.0450097284608,-43.7529477677629,-22.7787430322006,21.7344607319258,0.199179420565594,-2.36988163578226,0.386159188153884,-43.3668536112557,-45.5408202957195
-0.721225992444459,-0.243641207429921,0.644563060454493,9.82310739403338,71.9565530484493,41.3125604096654,-30.6502572657086,-0.45525453478849,2.57151197621242,-0.172867586399884,0.976445119723554,0.0457601014279382,-28.3248725410796,-128.448754467332,36.3915313667586,-0.00997694135552101,0.0520199372967181,0.00232072406590856,0.00206422298493972,5.30168092737718,30.4403891591829,0.0280319038487377,0.00934396794957923,-0.000510122933267205,0.00281045286671524,-39.1863551488114,-32.4821980144196,-22.9356768969983,17.064207124173,0.173689908761326,-1.17116777904592,0.339599017128176,-45.4255277834767,-72.630723156782
-0.641602759478783,-0.247112566376441,0.680682984111582,9.09707574622631,70.5121485987931,39.1371000487252,-31.381784619586,-0.365688547873309,2.50787838879204,-0.138857917525868,0.952282406711946,0.0378177671750005,-24.9246171823869,-146.156130524405,33.5368193624411,-0.00782989105517491,0.0496894500079582,0.00232072406590856,0.00187367932479144,4.17455392379692,23.7381651950857,0.0294609812998497,0.00982032709994991,-0.000400343837845471,0.00268454489715773,-33.068410330692,-23.6246310857351,-23.1411632900481,14.3108755634567,0.137380396550162,-0.191353721757298,0.283288158236847,-45.8233172215843,-96.8638144024262
-0.587444296150928,-0.264527830592106,0.729917459013474,8.39083232230578,68.7219311987057,36.7324011654856,-31.9966407798024,-0.292985245269964,2.24862053465146,-0.111251285446563,0.853837962833275,0.0307881619638431,-18.7414227183346,-162.423033480403,28.891947271625,-0.00422791485854233,0.0428868579592177,0.00232072406590856,0.00168313566464315,3.04674950568044,17.0033646174825,0.0308900587509619,0.0102966862503206,-0.000216174101098641,0.00231702495542025,-27.527644299721,-15.4437150618012,-23.4862528470466,11.9353220463007,0.184719598389392,0.693515066477463,0.175330236508531,-43.8402349773782,-116.88437801057
-0.530446945400808,-0.241414467595732,0.769282604488303,7.71248856032009,66.6472166914143,34.0670741039395,-32.5876979295148,-0.102337264809156,1.7353000063523,-0.0388591317921605,0.658921769812123,0.0240465236411128,-15.2454889151853,-174.433787120117,23.0230342193539,-0.00659639320713034,0.0448047373004804,0.00232072406590856,0.00142907745111211,1.54217423498931,8.7372335774278,0.0327954953524447,0.0109318317841482,-0.000337274855278477,0.00242064117975211,-21.8543483751219,-6.90598984722166,-24.0007260217021,9.76306761682962,0.254718825379881,1.62839371300877,0.0429188370293263,-38.6986279378599,-129.546750821324
-0.495160987639478,-0.236459380879592,0.784745899257576,7.12776415060259,64.4103216004785,31.2323928510787,-33.1849140757923,-0.011804753018592,1.37060602876908,-0.0044824576284975,0.520441506878167,0.0184140619255014,-10.3073722975626,-184.830714331178,16.7842709046781,-0.0107475480125276,0.0499872839401882,0.00232072406590856,0.00124952669443393,0.486640088792813,2.91540593633204,0.0341421260275311,0.0113807086758437,-0.00054952420007428,0.00270063580906842,-16.7396349221603,0.729923737513221,-24.4033424736066,8.05552317662341,0.35400423839055,2.55948542733957,-0.0356155768951499,-34.4737215674863,-144.738346957728
-0.599041826604853,-0.234807545933612,0.745351286697483,6.59645813202491,61.985582710174,28.2379082488703,-33.7555258872368,0.00209507091041423,1.20767490305928,0.000795532661279649,0.458573895907628,0.0143043687900766,-6.36676006355506,-192.760797123258,12.4059583944266,-0.0159647323004461,0.0565977465287799,0.00232072406590856,0.00118479070733227,0.133326051724085,0.798741352419899,0.0346276459307935,0.0115425486435978,-0.000816279837650101,0.00305777567693199,-12.6810735597459,6.87305119996181,-24.8067974136053,6.9165760092133,0.48467154233932,3.30250948027108,-0.0727884140940955,-32.1607379716264,-158.135009880103
-0.523992303874495,-0.236910150510795,0.689446067599507,6.08094363215412,59.3305986666854,25.1393617234654,-34.1987625942975,-0.171679231342057,1.36298385343226,-0.0651894096362532,0.517547242345021,0.0131111207057782,-1.97320569414323,-201.731895422321,6.53630855455595,-0.0172809948825345,0.0611562425807752,0.00232072406590856,0.00116036203295428,0,0,0.0348108609886284,0.0116036203295428,-0.000883580597010908,0.00330405506447075,-11.4434076304608,8.85642659071239,-25.0398488614738,6.87422045148828,0.523294336546984,3.55626571337971,-0.0911250374327028,-34.890231827681,-174.710538039472
-0.404447694855277,-0.179164891453197,0.721166127653477,5.55952242070275,56.5295174996063,21.9399769254002,-34.5970829528455,-0.393256839878213,1.55158206886581,-0.149326048507296,0.589161066722345,0.012167185343746,1.733319191323,-208.824159866106,-0.389104150539098,-0.0156580561319344,0.0588153953303105,0.00232072406590856,0.00116036203295428,0,0,0.0348108609886284,0.0116036203295428,-0.000800599426082103,0.0031775873828954,-11.3738769801855,9.10283358468267,-25.1879246668242,6.50811846084192,0.536953258090379,3.6208242251433,-0.0920015765453888,-36.8328337525943,-190.178275343916
-0.398616360701654,-0.216955786536713,0.736111783319754,4.95950355153229,53.4143302595585,18.6569429908758,-34.7654756268161,-0.567930341181259,1.63883706726234,-0.21565243137859,0.622293215490818,0.011346918982889,5.35889726785054,-212.725520704387,-3.20893070405226,-0.0129309730933371,0.0536739562091792,0.00232072406590856,0.00116036203295428,0,0,0.0348108609886284,0.0116036203295428,-0.000661163145027622,0.00289981364713319,-11.3729699356089,9.43595164257679,-25.5197599699763,6.2850247451825,0.585691825142791,3.68559929675099,-0.0992182627988064,-39.8083422264241,-205.516287356483
-0.417671844912719,-0.200867216090459,0.752800737105389,4.3939208311331,50.2376857318097,15.3887446461146,-34.8572950871098,-0.609768740022816,1.52302678476441,-0.231539155120806,0.578318158712948,0.00954932481752223,7.89017778522716,-213.824325149053,-5.73372998894504,-0.00909188789086938,0.0464947397605569,0.00232072406590856,0.00116036203295428,0,0,0.0348108609886284,0.0116036203295428,-0.000464869979140483,0.00251194602373118,-9.97529079020133,11.4396932185553,-25.5468847426734,5.62790968738158,0.592459384306616,3.9294575772836,-0.0776417095322575,-40.9118795607802,-216.701991636693
-0.357170710328033,-0.18912831870436,0.75014138186065,3.84226493801016,46.8719265961022,12.1325016446768,-34.7461026356804,-0.481404653675255,1.16225144431571,-0.182797213873283,0.441325866335372,0.00823548529206801,7.93553836873891,-212.079462424103,-6.19962363203573,-0.00736307505195165,0.0415765934395019,0.00232072406590856,0.00116036203295428,0,0,0.0348108609886284,0.0116036203295428,-0.000376475445682522,0.0022462360066642,-9.91185923617129,11.8037558205371,-25.8212415806636,4.99075739853249,0.583200846077782,3.89012099159511,-0.139324839963398,-37.9911006610168,-218.477392326255
-0.153383143046393,-0.200899882501932,0.87373640499598,3.30848639825606,43.3866696492231,8.94045171764123,-34.4534358899201,-0.321055244265165,0.754948378829859,-0.12190992277085,0.286666236428498,0.00658741194402428,9.14872513624933,-206.565508259757,-13.1634794628679,-0.0058504278335745,0.035849154164984,0.00232072406590856,0.00116036203295428,0,0,0.0348108609886284,0.0116036203295428,-0.000299133502040644,0.00193680275925,-9.06456186485535,13.4934830138431,-26.3127093400915,4.21163352394547,0.652047517725065,4.03982392050518,-0.228187011162935,-33.2297497030087,-220.91800280056
-0.252407343041378,-0.175433180497066,0.906617891891934,2.91374298876627,40.1638607788813,5.91818663890055,-34.2520809106897,-0.18611623474588,0.410919942047083,-0.0706713757509352,0.15603301704235,0.00455378717300884,11.169932857169,-199.261083084789,-20.4443208918741,-0.00561786359856586,0.0312515946598476,0.00232072406590856,0.00116036203295428,0,0,0.0348108609886284,0.0116036203295428,-0.000287242447908106,0.00168841291176898,-6.33699689714643,17.8857083271209,-26.8475752837816,3.21362054726809,0.811900822303709,4.54551136665739,-0.214051542087474,-27.7574239521315,-218.717608077564
-0.204971968431563,-0.139066044967272,0.865450244760488,2.54577563392373,36.8195477218426,2.9301592166009,-33.8957171304959,-0.125894149910686,0.148469400068679,-0.0478040660199827,0.0563762574183592,0.00347551885386207,13.2903320809901,-193.520438136144,-25.2941033312939,-0.005126028397361,0.0269111062339388,0.00232072406590856,0.00116036203295428,0,0,0.0348108609886284,0.0116036203295428,-0.000262094819333157,0.0014539117037041,-5.39704781532486,19.8254543436232,-27.4580325608317,2.66588899731985,0.964829497952541,4.72837637790756,-0.180174006859578,-23.4425385775621,-212.650192237329
-0.119668541055079,-0.131721197490962,0.913325575795589,2.27167989968057,33.848028726817,0.167980628893959,-33.6881590919924,-0.106655250066735,-0.0193814917112211,-0.040498741356807,-0.00735946912534273,0.00333679901238861,13.3376412920669,-184.536825510152,-27.1194216079777,-0.00501969674466391,0.0234588680054443,0.00232072406590856,0.00116036203295428,0,0,0.0348108609886284,0.0116036203295428,-0.000256658061449142,0.00126739950607274,-5.63241229585887,20.2006782943596,-28.1661121520402,2.80451486013694,1.09253675286181,4.77641974251472,-0.169082731399544,-19.2150251981179,-205.215001073856
-0.146997698256844,-0.11478993616695,0.881270939826799,2.02932942528027,30.7472265747466,-2.53882302813296,-33.2939452578756,-0.115170241799996,-0.167728902416768,-0.0437320228656396,-0.0636894051890319,0.00362654971070066,12.8252827455899,-175.55936701568,-27.0774426869305,-0.00500418921745388,0.0200013696475946,0.00232072406590856,0.00116036203295428,0,0,0.0348108609886284,0.0116036203295428,-0.000255865158595832,0.00108060312229288,-6.03007440349766,20.243051831523,-28.7708648350683,3.336363661999,1.19315225951875,4.80876505704238,-0.137329776979127,-15.432946199492,-195.889569638377
-0.100001723568266,-0.0898298611570833,0.880596885639374,1.85622135799109,27.8898628447304,-5.00540951013488,-32.9023817000236,-0.126046863386632,-0.280878973377485,-0.0478620538223662,-0.106654336174381,0.00398234955719613,11.9381724215466,-166.365983175203,-23.9507562866323,-0.00502060893834038,0.01714542225248,0.00232072406590856,0.00116036203295428,0,0,0.0348108609886284,0.0116036203295428,-0.000256704702087527,0.000926306405285991,-7.3120591836468,19.0900105679206,-29.4308238343087,4.02008748311345,1.29326329138655,4.69857470568231,-0.107189974255184,-12.5841801529907,-184.936953169444
-0.0487872980892074,-0.0925493970956405,0.906127346653813,1.71881788434407,25.2897277900719,-7.37504371506797,-32.6734918095918,-0.138388798657424,-0.362568215445807,-0.0525484883303862,-0.137673076312242,0.00404355902267583,10.1075246334149,-156.611226300826,-20.0071722608417,-0.00512377223544576,0.0146275410115417,0.00232072406590856,0.00116036203295428,0,0,0.0348108609886284,0.0116036203295428,-0.000261979461339849,0.000790274204568786,-8.57982010681993,17.9135750210974,-30.0472729788836,4.55757009824234,1.39707511504922,4.58870421722158,-0.0985510194701795,-10.0137552481726,-173.969088051935
-0.00417033591222916,-0.101837811336365,0.909242489000356,1.63742653124294,22.9906857981279,-9.54906389379775,-32.5479085423601,-0.153430769633633,-0.394234322247624,-0.058260170518379,-0.149697214536486,0.00375681771258404,8.38518574979441,-145.395665776812,-13.7896353936923,-0.00527704640809363,0.0128527073586515,0.00232072406590856,0.00116036203295428,0,0,0.0348108609886284,0.0116036203295428,-0.000269816399311021,0.000694386231862163,-8.90290763822658,17.669281549399,-30.2598942759341,4.71841167015781,1.43670802577095,4.57926227618871,-0.091187282000405,-8.18012888635175,-161.110310487996
0.0646388860801034,-0.0861415993451363,0.952827525565848,1.52956011657978,20.6701201176611,-11.5214299469983,-32.1991100776095,-0.172125614592244,-0.422709760848001,-0.0653589086509197,-0.160509803904349,0.00335550733270074,6.64129201334216,-132.660193879139,-10.8218989002912,-0.00548684469504241,0.0110642186418451,0.00232072406590856,0.00116036203295428,0,0,0.0348108609886284,0.0116036203295428,-0.000280543426134078,0.000597760524442222,-8.49989267350576,18.2252048838632,-30.2458683814508,4.62780366135323,1.44003594139846,4.64906765672144,-0.0802972666499088,-5.63801829540015,-149.997284942576
0.108093786989402,-0.107582611990672,0.967952672418055,1.44840102368904,18.4714014272403,-13.3182779264237,-31.7967681445475,-0.194026529937526,-0.438610785144781,-0.0736750441012697,-0.16654768267638,0.00309888208667076,5.62627026970696,-117.844816500312,-6.0321751599192,-0.00579206559467815,0.009101435233864,0.00232072406590856,0.00116036203295428,0,0,0.0348108609886284,0.0116036203295428,-0.000296149429524133,0.000491718292514165,-7.89032263955622,19.2096465245438,-30.3682478129037,4.56013381994584,1.4419492124106,4.78419660584028,-0.080812599378622,-3.36028161196565,-138.487043047338
0.0951306885567138,-0.118129904427065,0.948697748309591,1.42173249131038,16.6380624773745,-14.8446752383383,-31.4894388540873,-0.216567837382644,-0.434025425866518,-0.082234346896893,-0.164806546826788,0.00338454705243934,3.72021589071302,-103.9829503215,-1.93415364110901,-0.00604527024784764,0.00797556573390388,0.00232072406590856,0.00116036203295428,0,0,0.0348108609886284,0.0116036203295428,-0.000309095832212994,0.000430891553226462,-7.39261169715938,19.7475770061246,-30.2023087296054,4.91956286967027,1.39193737280274,4.86002393946725,-0.0838974573347999,-2.20859112340147,-126.067696323937
0.146683066173628,-0.132527559479852,0.926628780980783,1.3959580777391,14.8687578264116,-16.1907723385951,-31.0675505073696,-0.239196676472366,-0.430487678537681,-0.0908268868883706,-0.163463206353941,0.00393300795534021,4.04946985027035,-90.4687939009965,1.67842634150013,-0.00621042626300987,0.00681196615817227,0.00232072406590856,0.00116036203295428,0,0,0.0348108609886284,0.0116036203295428,-0.000317540291080607,0.000368026391650616,-7.8808008647818,18.5653987312852,-29.7105341966212,5.75059760715763,1.28957483868241,4.76620391698768,-0.0832975845657852,-1.26896015742311,-115.355024856086
0.18985317511723,-0.133855096295885,0.891040430770037,1.38604269544742,13.4005075307033,-17.3261240009796,-30.7336762043716,-0.257078545172611,-0.419171441924305,-0.0976169246503605,-0.159166246387593,0.00480736929462296,4.41497714799517,-76.828942433931,0.344639967179028,-0.00632034903455228,0.00592905711201912,0.00232072406590856,0.00116036203295428,0,0,0.0348108609886284,0.0116036203295428,-0.000323160663562905,0.000320325944692052,-8.55945716352594,17.0142781601772,-29.1191785673872,6.92771152492628,1.17291727316637,4.62406708206316,-0.0796959685218971,-0.841036810807355,-105.044195843514
0.203485185130717,-0.117941380371645,0.906565179649179,1.37769374548441,11.9836450629972,-18.262650739203,-30.2532854331531,-0.273812336923148,-0.395093373845508,-0.10397101883325,-0.150023410466392,0.00527398651892671,3.9335364894821,-66.7524944829442,0.343357257385249,-0.00641819777545393,0.00531396410055508,0.00232072406590856,0.00116036203295428,0,0,0.0348108609886284,0.0116036203295428,-0.000328163688532841,0.000287094649015832,-9.87549309424423,14.8753956612358,-28.8414519302378,7.95413197072264,1.11327734574242,4.43841981359728,-0.0921122507842774,-0.323620292396163,-93.7056677345072
0.253047349489083,-0.107794551168297,0.883538135465873,1.37893980866544,10.7829054703014,-19.1252356196136,-29.9137004809198,-0.288142613795198,-0.371801344799222,-0.109412459139746,-0.141179046410891,0.00533237354776391,3.32316878258673,-60.1738021102166,0.778271811665404,-0.00652828259971918,0.00482259424805176,0.00232072406590856,0.00116036203295428,0,0,0.0348108609886284,0.0116036203295428,-0.000333792346802072,0.000260547677174855,-11.6397100849179,12.5025309354127,-28.9635667995945,8.80784326091507,1.12008719751708,4.24206093593984,-0.128952910376752,-0.125800752315807,-83.8915299546984
0.259403143638338,-0.119343555365543,0.864997196131449,1.37140282661038,9.64059835214764,-19.8870283326444,-29.5349966657385,-0.29448434967525,-0.332109081091702,-0.111820519886861,-0.12610724525013,0.00556400078105457,3.28913242587611,-46.6935412157322,-3.22036182176903,-0.00638869536031772,0.00446670585095561,0.00232072406590856,0.00116036203295428,0,0,0.0348108609886284,0.0116036203295428,-0.000326655224364168,0.000241320288257709,-12.8644119035742,10.8175489150735,-29.010574701062,9.65581692146981,1.11791073521458,4.0174934817459,-0.123873873141322,-0.530860579467754,-73.7325721026294
0.234097002699004,-0.119794805760523,0.846950358469408,1.3619812391048,8.6699101746438,-20.4107331065635,-29.0873715716082,-0.294457723098898,-0.27570052595535,-0.111810409340702,-0.104687995064613,0.00560857072194593,3.12142235270861,-35.3660307056812,-5.83619198437632,-0.00631923464874728,0.00425132220521379,0.00232072406590856,0.00116036203295428,0,0,0.0348108609886284,0.0116036203295428,-0.000323103684802043,0.000229683873143135,-14.2198906003255,8.61173856838482,-28.7217007108269,10.3506303825783,1.07464824362016,3.74162316398396,-0.0976243748863763,-0.573276571081168,-63.414102927319
0.2444835097846,-0.0891862311162555,0.849563838670795,1.35540706717085,7.92149206895973,-20.7355552458411,-28.6631524010396,-0.292358100777035,-0.221242131962342,-0.111013148434118,-0.084009252933776,0.00569485346450777,3.36333410677124,-27.5443081371142,-8.22194920874336,-0.00632133339294079,0.00453818175763303,0.00232072406590856,0.00116036203295428,0,0,0.0348108609886284,0.0116036203295428,-0.000323210993996917,0.000245181878203056,-15.6588416705274,6.12119835979577,-28.2661446213087,11.0761335732299,1.03137032220126,3.47546569020819,-0.0917728756645259,-0.35621751084037,-53.2833917961291
0.279506731461778,-0.0984009197876991,0.841749797197308,1.35330358701561,7.24460533081121,-21.0117626111435,-28.2632982134489,-0.291912414822383,-0.164086828368567,-0.110843914193961,-0.0623064501559873,0.00604128153347455,3.07640665769174,-21.7775685816889,-10.9301948157446,-0.00641267522190681,0.00451082996971481,0.00232072406590856,0.00116036203295428,0,0,0.0348108609886284,0.0116036203295428,-0.000327881319306221,0.000243704158029614,-16.5815967844491,4.66022339821023,-28.1101424565803,11.840241131532,1.01904539113053,3.36789230659268,-0.107645128316961,-0.0383582222137183,-46.4458706764862
0.184972175658281,-0.0974131013652739,0.827773723363055,1.35129925976276,6.68174844290308,-21.1744599248481,-27.863757629312,-0.292923104135015,-0.102637796526637,-0.111227689442144,-0.0389732485964262,0.00617326860697809,2.7228511479345,-13.7583385921509,-16.8825504421268,-0.0064033277894437,0.0045519502763499,0.00232072406590856,0.00116036203295428,0,0,0.0348108609886284,0.0116036203295428,-0.000327403383283879,0.0002459257424772,-17.4623505287214,3.35601126611192,-28.0515042147427,12.3611627985269,0.996522546042163,3.24280629619479,-0.102919962518019,-0.15286844619989,-39.5500779958947
0.194900096134033,-0.102656045139898,0.841260651395366,1.34619388897089,6.1926397204657,-21.2184976847594,-27.4171424323397,-0.293108405516393,-0.0495208572824303,-0.111298051404756,-0.0188038787550882,0.00584326315959647,2.53682637088838,-7.46722376643184,-19.4469629575826,-0.00631759833999421,0.00458149246595134,0.00232072406590856,0.00116036203295428,0,0,0.0348108609886284,0.0116036203295428,-0.000323020020020312,0.00024752180229136,-18.4042391140238,1.67839659071004,-27.7059211509198,12.4446713093203,0.961202455748485,3.02026978331854,-0.075173109568896,-0.373149599879487,-34.2329270330814
0.253191040557153,-0.103624212013997,0.849373850028861,1.33976547637703,5.77709748546286,-21.1930851436593,-26.9771341720807,-0.290504256830077,-0.0129673690973351,-0.110309213592873,-0.00492392195248363,0.00597597844512765,2.87635587255011,0.571799962681783,-21.0881250262323,-0.00624039775840961,0.00458373813469195,0.00232072406590856,0.00116036203295428,0,0,0.0348108609886284,0.0116036203295428,-0.000319072739413508,0.000247643127815337,-18.173980154848,1.52191835271566,-27.2238075700012,12.4654279781429,0.900349069397487,2.95338702632349,-0.0610297438259814,-0.502628276213392,-29.5053346773855
0.208412044524675,-0.0900350716570076,0.874747979453702,1.33131346719969,5.4027952798076,-21.0309737205541,-26.4409457349617,-0.289546668741959,-0.00151484496703307,-0.109945601747391,-0.000575211388817207,0.00619512400026877,2.8024625844534,8.84416096903891,-22.8381278587149,-0.00620691426916145,0.00454243393143112,0.00232072406590856,0.00116036203295428,0,0,0.0348108609886284,0.0116036203295428,-0.000317360722158656,0.000245411608084745,-17.3888109088459,2.46943073404621,-27.0609229548773,12.2970328532436,0.860124250680361,3.05538916285267,-0.0560344196060382,-0.484228367423877,-26.0932227207201
0.141983655129603,-0.100607617413652,0.880920094304816,1.32473649856637,5.12020249303776,-20.6785653839606,-25.8050807061389,-0.286078534728191,0.0186065822469638,-0.108628694587861,0.0070652233385834,0.00619193340580514,3.24623422891459,15.1675071703608,-23.2569479573738,-0.0061840841642063,0.0044078699152403,0.00232072406590856,0.00116036203295428,0,0,0.0348108609886284,0.0116036203295428,-0.000316193414494762,0.000238141591150602,-17.0769410699717,2.89200095786069,-27.0424426228607,12.0408286804377,0.844360164575827,3.1149186557505,-0.045444605613637,-0.440053691367093,-23.7875573835039
0.0582529250516256,-0.0884721704977846,0.905654875839902,1.3178284742625,4.81175045984583,-20.138894401471,-24.9581181431796,-0.283853573663892,0.0367517317979455,-0.107783840512552,0.0139552331420013,0.0059226644218406,3.44863488743445,18.541651959323,-24.2711072438575,-0.00617320032615886,0.00436233063594636,0.00232072406590856,0.00116036203295428,0,0,0.0348108609886284,0.0116036203295428,-0.000315636921758951,0.000235681265269973,-17.4697932636321,2.07529626269262,-26.7813148279753,11.7397309412795,0.811490766214368,3.01841831161737,-0.0372291419598219,-0.34391615807028,-20.8026359056293
0.119443779663236,-0.0702259216066567,0.926284862926162,1.3133850176391,4.53358104157796,-19.5587112038125,-24.1004279079022,-0.282821981258066,0.0505615323628054,-0.107392128018296,0.0191990400892955,0.00604263172839051,2.80576532964859,16.4340777477839,-24.0466110701575,-0.00617641431067997,0.00418700868368017,0.00232072406590856,0.00116036203295428,0,0,0.0348108609886284,0.0116036203295428,-0.000315801253406594,0.000226209241485436,-18.1273851537043,1.12862354301924,-26.7646174777485,11.8615742108617,0.815332626813121,2.92814311226456,-0.0532452587649711,-0.296286278286852,-19.410826041358
0.144035787844089,-0.0776178909016031,0.924826816700196,1.30821448132965,4.28111615666305,-19.1282172920821,-23.4172370402739,-0.282237390108376,0.0607511623100171,-0.107170149205664,0.0230682090940608,0.00669242005622947,2.83158560551703,21.0860993348545,-22.5884238212024,-0.00612070635673015,0.00392496674363521,0.00232072406590856,0.00116036203295428,0,0,0.0348108609886284,0.0116036203295428,-0.000312952894990668,0.000212052044074792,-17.9306672713899,1.56171068409179,-26.9195035216908,12.2075300334366,0.841429042709978,2.98044354081412,-0.0553024595432303,-0.433894623942575,-18.3228172643501
0.156144200348127,-0.0898321694140759,0.975930742659739,1.30328149012135,4.04567371853724,-18.5845846580548,-22.6376641868828,-0.281930712805717,0.0644249162093838,-0.107053698822278,0.0244631934842893,0.0062016732959851,1.95140259098799,23.4883514377352,-19.5564553767524,-0.00614919800140542,0.00380446937180529,0.00232072406590856,0.00116036203295428,0,0,0.0348108609886284,0.0116036203295428,-0.000314409678270977,0.000205541998086858,-16.9478286618428,2.87603211714879,-26.8438812635024,11.2299978332263,0.844232111172929,3.14769791410965,-0.038349455666428,-0.130717450330414,-16.4643276479905
0.155553958204972,-0.079875687037341,0.9611420272172,1.30083850272244,3.85598271670324,-18.2248959345982,-22.087584790452,-0.279787170850566,0.0741561649039221,-0.106239760913222,0.0281583076367786,0.00774380521110875,1.60941929083128,28.5301746322313,-16.6830902100082,-0.00608976674733827,0.00377160918907202,0.00232072406590856,0.00116036203295428,0,0,0.0348108609886284,0.0116036203295428,-0.00031137094680287,0.000203766678861909,-15.7451871726201,4.62633810025792,-26.8933953418802,12.0769062080479,0.851971047559445,3.35712521935994,-0.0375460193942498,-0.406478129714903,-14.4574550462239
0.124317410445284,-0.0796660068590489,0.994330982286348,1.29719240348266,3.64955991092179,-17.5420800192515,-21.1992448443857,-0.280769188122772,0.0801796491945374,-0.106612648919111,0.0304455230546767,0.0049583686567661,0.937196657355581,35.9925710529035,-14.6956921177814,-0.00619481608858932,0.00373430766166662,0.00232072406590856,0.00116036203295428,0,0,0.0348108609886284,0.0116036203295428,-0.000316742139855651,0.000201751409523321,-15.1807715466043,5.21941749871536,-26.6882705072107,9.1951222597492,0.876124733269254,3.40349561180517,-0.0315451555253644,0.135016900085394,-12.4248024789193
0.114076927600211,-0.0835856545401423,0.96461177440325,1.29364158931123,3.55490112519363,-17.1494483793495,-20.7124869066055,-0.275679778141464,0.088457962474488,-0.10468011678063,0.0335889338871071,0.00797589468571531,0.271989467336149,44.1005792351108,-13.9835792234128,-0.00594663271741287,0.00382124117285157,0.00232072406590856,0.00116036203295428,0,0,0.0348108609886284,0.0116036203295428,-0.000304052476282294,0.000206448119062392,-15.115473476196,5.83748183688935,-27.2139894286166,11.7211898465411,0.901956536407626,3.45456277145578,-0.0377519448977701,-0.948502879183735,-10.748033929816
0.164313915771552,-0.0754010604419959,1.14042737309486,1.28642999813663,3.3380377665959,-15.9562267359746,-19.3018576578734,-0.27832891197812,0.0924452156684188,-0.105686036189221,0.0351029590825294,0.00325149196548626,-0.887726832042955,44.0145697825894,-11.1690721425727,-0.00618634423166458,0.00370786155270737,0.00232072406590856,0.00116036203295428,0,0,0.0348108609886284,0.0116036203295428,-0.000316308972179239,0.000200322619974536,-15.365360793837,5.05669786127905,-26.7865994866791,7.25229355772552,0.927665235781169,3.37610359897488,-0.0493888132185616,0.376501773499592,-9.58236482642685
0.531573305411255,-0.107816264084987,1.45652773765073,1.27592370285583,3.34674376119331,-15.9009920570127,-19.2553864681549,-0.262203209834791,0.0932790313867267,-0.0995628435672833,0.0354195725365681,0.0233050492640018,-7.12479405221462,31.5159653144049,-3.92165441087248,-0.00550800634424812,0.00357819835016164,0.00232072406590856,0.00116891206898658,0,0,0.0346398602679825,0.0115010198971553,-0.000281625425334125,0.0001933173766344,-14.1942130863373,7.90614169385565,-27.9797903477676,24.5301703672484,0.830526534374502,3.70063636752778,-0.128671542521524,-3.51632435332764,-11.4251004629777
0.95428141650006,-0.359479970015902,2.05191066303784,1.11556587655532,2.95580727113791,-14.409421099758,-17.3717579186361,-0.211267166881713,0.0656309733568269,-0.0802215956867976,0.0249211530919529,0.0516142670996796,-11.4775533998379,23.7519852137291,-1.30005645351349,-0.00298247859659362,0.00269629377809527,0.00232072406590856,0.00142144349036899,0,0,0.0295892318403342,0.00847064284056628,-0.00015249470512915,0.000145671197851144,-8.86867794212576,12.5228463968423,-25.0650510229157,47.3319524319135,0.396326886678406,3.72510284805533,-0.232366448533882,-13.6296982319016,-13.8413175321499
1.22495924867097,-0.283930233111435,1.78642870764634,0.684582304327475,3.11690071632106,-16.0040519670086,-19.1289870463583,-0.0316900533086882,0.0512490808834581,-0.0120332311042256,0.0194601134981596,0.164407411193752,-3.20497121766825,24.1261809820058,-21.0454604475802,0.00709952009499251,0.00256626005812193,0.00232072406590856,0.00174054304943142,0,0,0.0232072406590856,0.00464144813181713,0.00036299982996722,0.000138645936767414,0.678913795926756,25.5740163560873,-24.6138872582055,144.403862958196,-0.22304870950028,3.92095574457849,-0.304334529870362,-44.4222078031513,-15.3608571162953
