accel_x,accel_y,accel_z,angle_ankle,angle_knee,angle_shank,angle_thigh,current_ankle,current_knee,current_qaxis_ankle,current_qaxis_knee,ground_reaction_force_vertical,gyro_x,gyro_y,gyro_z,impedance_current_desired_ankle,impedance_current_desired_knee,impedance_damping_ankle,impedance_damping_knee,impedance_equilibrium_angle_ankle,impedance_equilibrium_angle_knee,impedance_stiffness_ankle,impedance_stiffness_knee,impedance_torque_desired_ankle,impedance_torque_desired_knee,loadcell_force_sagittal,loadcell_force_x,loadcell_force_y,loadcell_force_z,loadcell_moment_x,loadcell_moment_y,loadcell_moment_z,velocity_ankle,velocity_knee
-0.139078849983154,-0.186241890251413,0.273160336173141,0.316832118307043,3.06192842748791,-3.21843252088553,-6.28358073802506,0.00153997817855354,0.350134156798226,0.000584754879945833,0.132951661052621,0.224451822346318,1.73534210209275,11.5399013217228,-16.3840594953894,0.0143420318862718,0.0131202039481583,0.0033615463113032,0.00417191908277808,0,0,0.0348160153670689,0.0127258538927907,0.00102425817347922,0.000990075682052272,19.7015893978323,22.2655958244319,5.5966591022886,134.962293780834,-1.12334653783525,-2.54801659882162,-0.341426912029424,-29.7323731668701,6.07626771912124
0.0527438857516234,-0.0873045201252079,1.41669321538256,-0.0894785526837404,6.46358148040256,-6.26115012215474,-12.7327470141671,0.467597865983369,0.961193051430355,0.177554550963092,0.364980708961642,0.582332612791727,5.02513929117776,29.5814429202894,-15.1039302085797,0.0422739061303844,0.0303139646203665,0.0033615463113032,0.00417191908277808,0,0,0.0348160153670689,0.0127258538927907,0.00301905575320788,0.00228754974509605,23.7811144258612,26.2141338720176,7.41744067738176,351.978465523158,-1.79285275052945,-7.29392941003097,-1.45287021272333,-61.6131958656715,18.557705407942
-0.130056399342169,0.0326949873332146,1.15887573450015,-0.931453322391523,6.07067711266052,-4.92781429380114,-11.0059898342358,1.04966591474728,1.23447988463403,0.398575300942125,0.468752185445091,0.737993468477692,6.23483975875051,29.5397229907963,-3.75922402335804,0.0320099788818182,0.0301452566264032,0.0033615463113032,0.00417191908277808,0,0,0.0348160153670689,0.0127258538927907,0.00228604166847396,0.00227481871722096,-0.446231651857751,5.22077545420405,-5.85184230822143,448.386168118927,0.211186747487029,-6.78764012388185,-2.52148917072384,-27.2846295771157,20.7292319689856
-0.0755649356809494,0.097735158309958,0.924271095968936,-0.960809280509404,6.83401585425904,-4.82306032886604,-11.6651190627562,1.19239901215774,1.49529221504461,0.452773390501384,0.567786889365949,0.929546585346412,3.64099355891556,32.6793808194689,-3.81753648978425,0.0061133779466188,0.0333989047543569,0.00333933609460352,0.00414970886607839,0,0,0.0343718110330752,0.0115709226244072,0.000436596249335187,0.00252034522749248,-6.24012005467243,6.95291167006567,-15.7777740822198,565.159002507426,1.26725587055181,-4.83761392999884,-3.45131865078292,10.0487985152607,21.6583683887609
0.215745044974657,-0.051437114648707,1.01440645489583,-0.461194207748151,6.9013844927795,-3.99681848145986,-10.9056633499637,0.779281492759941,1.54305488388557,0.295905917427263,0.585923155238377,1.00101974416776,1.17660353949502,34.5373137324751,-0.884827460698346,-0.0197360046532811,0.0298295841107909,0.00330391980310943,0.00411429257458431,0,0,0.0336634852031935,0.00972927546671471,-0.00140947700006836,0.00225099746547556,-8.13275595690407,10.9499421854015,-22.4513959591258,607.939646114602,2.05452707712467,-2.48479469450462,-4.02085481881771,39.1276036309435,18.3214873349532
0.125551825575177,-0.0071370810102825,0.975536456946302,0.408568362597973,7.3724648736472,-3.61599964657032,-10.9961767736139,-0.13002278292312,1.5738759523698,-0.0493717754428484,0.597626418604245,1.0218912119169,0.0945553518134029,37.4688823376779,-5.36258170218751,-0.0332370799379224,0.0297849732172854,0.00327750765352062,0.0040878804249955,0,0,0.0331352422114173,0.00835584368809656,-0.00237367696982919,0.00224763104213421,-8.41166214374489,13.6659330250526,-25.561819710837,620.292670244908,2.5139724055708,-2.37512280438796,-4.44692591335076,43.3554004492545,19.5447583366419
0.106281044104682,-0.0136474408190761,0.971485575654527,0.986304998681061,7.60452039254224,-2.92406060740132,-10.5368472259508,-0.97125786329571,1.56521724490759,-0.368802482501011,0.5943385658846,0.965131274144223,-0.828100564084797,36.3840856814056,-0.664010751408908,-0.0311082392537633,0.0310833287261881,0.00325589771294796,0.00406627048442283,0,0,0.032703043399964,0.00723212677831804,-0.00222164255182792,0.00234560743191461,-14.1722238142589,7.88917059194546,-27.9317217190573,585.657232523076,3.1521846401112,-3.37088795662947,-4.74327982943857,31.6994720756061,22.6500035479092
0.06872235180497,-0.0493352231207553,0.965977358577051,1.43241664472929,8.06377260724326,-2.40794902894117,-10.4795253502293,-1.4219149714907,1.63830872322866,-0.53992435089451,0.622092594627297,0.902102037350049,-1.63839517143773,35.3992672013294,-1.45926603838034,-0.0258057831391595,0.0317102832539066,0.00324329191428057,0.00405366468575545,0,0,0.0324509274266163,0.00657662524761391,-0.00184295952713764,0.00239291861961408,-17.2107208659336,4.22716704901504,-28.566801915836,547.227907042323,3.50674820396398,-4.01017780447633,-4.89094070530355,20.6859345198722,23.7117635238266
0.0420869313301745,-0.0585262059115132,0.967873729411548,1.76593107163659,8.37273986919563,-1.79972559223431,-10.1796934344244,-1.55375744839679,1.67877097304905,-0.589987093879215,0.637456772097839,0.845147745870512,-1.67175366258127,34.373034690704,-1.38132628817818,-0.0257239257342738,0.0311290131654768,0.00324149108589951,0.00405186385737439,0,0,0.0324149108589952,0.00648298217179903,-0.00183711355519456,0.00234905486707391,-17.8017832985859,3.29869338093942,-28.4742167562264,512.360316302716,3.68551845451289,-3.62751036402128,-4.93618522676779,18.8069737955762,22.2529137338139
0.020969792310311,-0.0731464084694588,0.957651737340549,2.10066481368892,8.7282501320955,-1.27130710600013,-10.0074769023346,-1.53313144209361,1.67813897322453,-0.582155062226077,0.637216791436648,0.816581792312139,-1.82001153014058,33.9092393282576,-2.76254643667367,-0.029715589278468,0.0293159076043626,0.00324149108589951,0.00405186385737439,0,0,0.0324149108589952,0.00648298217179903,-0.00212218432085318,0.00221223445390458,-16.7754952861085,4.49349863389307,-28.2176315830337,494.752155448259,3.740174983219,-2.8934691350829,-4.99215603751333,22.2865798274685,20.6277578684081
0.0380685066181076,-0.0636556110058765,0.958289347523587,2.58546920901044,9.05617602947312,-0.745118707937042,-9.80842811368169,-1.5703476051884,1.62804697326758,-0.596286647520992,0.618196040474717,0.811267406016393,-1.92459381927767,34.0903448892174,-2.32688270305074,-0.0359633929473839,0.0290567646285844,0.00324149108589951,0.00405186385737439,0,0,0.0324149108589952,0.00648298217179903,-0.00256838078903326,0.00219267902934666,-17.1360071167359,4.50750397357714,-28.7414776429869,491.305890607107,3.85744332511718,-2.32157258186869,-5.11457305601314,26.6418884622472,20.1358717950051
0.0571345447707015,-0.0500199012925245,0.962434564364009,3.07271913396617,9.37078484161479,-0.223389984374192,-9.60139651018047,-1.72616716771655,1.59760187292177,-0.655453881737871,0.60663553835489,0.825913650601961,-2.17095951791982,34.889193818471,-2.2609205240594,-0.0419967965313022,0.029874873519468,0.00324149108589951,0.00405186385737439,0,0,0.0324149108589952,0.00648298217179903,-0.0029992655467671,0.00225441509086942,-19.4638045734233,2.42471824581101,-29.9506946489258,499.986223978356,4.06950043825037,-2.21550003418815,-5.31242736800252,29.3695966271093,20.8994343319299
0.0728155988564812,-0.0390513895735477,0.970650044411023,3.56931790042327,9.73158577928077,0.342614749337421,-9.39567182875841,-1.96161838408508,1.63938065438335,-0.744858556218389,0.622499624403692,0.851078523834889,-2.41336670276125,36.0699403914616,-1.67702246291752,-0.0461928777512148,0.0321808631312127,0.00324149108589951,0.00405186385737439,0,0,0.0324149108589952,0.00648298217179903,-0.00329893511382419,0.00242842947713008,-23.5584642924129,-1.65042686964844,-31.6662728413642,515.006590295943,4.32584124056148,-2.46406100073552,-5.52308602836512,29.8897664029419,23.558032547342
0.0797512545230164,-0.0468575311305813,0.974001945710024,4.11424952037994,10.1699854504308,0.94764131903289,-9.22925632961628,-2.2326066273479,1.76079103917259,-0.847757220538894,0.668601131535628,0.878498786201942,-2.70222964813972,38.0325335017754,-1.1071154427989,-0.0505472600929874,0.0357044216425998,0.00324149108589951,0.00405186385737439,0,0,0.0324149108589952,0.00648298217179903,-0.00360990999795364,0.00269432394113362,-28.2198755875347,-6.90137289147701,-33.007557892896,531.341063079783,4.51933894783593,-2.83439594959048,-5.66840934015709,30.4687551688858,27.3162931922913
0.069730982304556,-0.0603753617741047,0.979667832465539,4.6139191268076,10.6605423075324,1.6174482418659,-9.05646242672642,-2.51502768386597,1.96198031268895,-0.954997110881703,0.744995986423735,0.902356056595128,-2.79747851427737,40.1305656726945,-0.64882052156636,-0.0543586463768854,0.0399631541403976,0.00324149108589951,0.00405186385737439,0,0,0.0324149108589952,0.00648298217179903,-0.00388210598695474,0.00301569604015707,-33.1518814856041,-13.1552636102875,-33.7285768048394,545.456949010386,4.6020750498936,-3.20600054682481,-5.7222590940639,30.525126114256,31.6180320578081
0.0579987639879481,-0.0674482414094445,0.98047526735055,5.1670650713174,11.2380562110049,2.31990445155322,-8.92437453342294,-2.77911586970684,2.20761971485731,-1.05527571064182,0.838269281542655,0.919059750737914,-2.61578144696058,42.1819063085693,-0.772213172015014,-0.0586653073193357,0.0443750037873064,0.00324149108589951,0.00405186385737439,0,0,0.0324149108589952,0.00648298217179903,-0.00418967277426128,0.00334862265208588,-37.9393740724671,-19.7950354715391,-33.8593418896901,555.205034170297,4.59657375451182,-3.48759826190414,-5.68728045605552,31.6457870041959,36.1555251383653
0.0255912425341493,-0.0694185776266089,0.974013208129379,5.7582120382737,11.9218602859743,3.05804413394742,-8.87094773488556,-3.08035281276839,2.51903223156445,-1.16966030058495,0.956517703083118,0.929564796692609,-2.3018935269783,44.1478300467955,-1.19772292037938,-0.0641030723800277,0.0491862672287823,0.00324149108589951,0.00405186385737439,0,0,0.0324149108589952,0.00648298217179903,-0.00457801909457624,0.00371168979282351,-42.6225690656654,-26.5892345986305,-33.6881806372174,561.169483370809,4.52749037808484,-3.677361904047,-5.60731128089951,32.8992074506124,40.8353513546251
0.0150995414178266,-0.0708536334757355,0.974418112580164,6.32860486695611,12.6595550857476,3.81287838239807,-8.85353558294959,-3.34082607574943,2.86252315459824,-1.26856625506194,1.086946819715,0.935346338358614,-2.05841086667063,45.4631313501019,-1.19790925209921,-0.0686295240551096,0.0539522650850017,0.00324149108589951,0.00405186385737439,0,0,0.0324149108589952,0.00648298217179903,-0.00490128257368614,0.00407134110592817,-47.2355625656773,-33.1288816273299,-33.6722915793738,564.251491280153,4.43243158236973,-3.77284925916447,-5.52631044584102,33.4804065030249,45.310051386984
0.00642359851574673,-0.0674438931769428,0.972730125457149,6.99331349951141,13.4862675266451,4.60567716254544,-8.88827270501699,-3.649642608117,3.20874906756902,-1.3858289389264,1.21841445671978,0.937634627616974,-1.8304399127943,46.6739497640992,-1.82574236113426,-0.0738113257868144,0.0585053814652674,0.00324149108589951,0.00405186385737439,0,0,0.0324149108589952,0.00648298217179903,-0.00527134888082689,0.00441492797572585,-51.3571919409135,-39.1413357276553,-33.4887016405828,565.229979468829,4.30943353808564,-3.72047704503505,-5.44701068564887,33.9888882014461,49.2360969943407
-0.0115479055622065,-0.0706861460029993,0.969192491770634,7.54317029322636,14.3548036200692,5.39742080267973,-8.96459058020152,-3.94209905265867,3.5249047857065,-1.49687943009503,1.33846394935436,0.937301545697986,-1.7625229160093,47.8226184326726,-2.48366211430637,-0.0783165833202489,0.062333013746545,0.00324149108589951,0.00405186385737439,0,0,0.0324149108589952,0.00648298217179903,-0.00559309874784999,0.00470376842794025,-55.116251285163,-44.7887550121294,-33.1573950625116,564.646168533421,4.1640287559072,-3.60212404024786,-5.38434657377758,34.329382887608,52.3526685873873
-0.0311025336246577,-0.0693940477747934,0.962630902653493,8.12667524830059,15.2334838241538,6.22001038496252,-9.02126356970022,-4.20675315843264,3.81240141125068,-1.59737291890173,1.44763111619878,0.934679297309374,-1.45479712816852,48.7088318998831,-3.08214547442262,-0.0826865390784624,0.065943546939729,0.00324149108589951,0.00405186385737439,0,0,0.0324149108589952,0.00648298217179903,-0.00590518583136688,0.0049762261677695,-58.8047476584836,-50.4289375703744,-32.7335341001806,562.680988250698,3.97533756654511,-3.48464763298383,-5.31868576973656,34.7510650882871,55.1100536398877
-0.0372451779612469,-0.0795577784524605,0.972715953621935,8.70550780572677,16.1482441224542,7.05142618808807,-9.10397948463954,-4.46773217170062,4.05724651895771,-1.69647091502739,1.54060280473077,0.931113536386342,-1.06475544722442,49.6003657962432,-3.13013749598939,-0.0875949415787476,0.0695154052819103,0.00324149108589951,0.00405186385737439,0,0,0.0324149108589952,0.00648298217179903,-0.0062557269136563,0.00524576542937722,-62.4124385794981,-56.161729611528,-32.1027874883761,560.156666303862,3.73048713821631,-3.40120195437833,-5.24063234000584,35.3976246631356,58.1035881798804
-0.032141869722242,-0.0765226664318959,0.986317123762326,9.21554343027264,17.1681111032007,7.89815392942588,-9.27689740000768,-4.69741924007835,4.28926902970388,-1.783686848321,1.6287055436563,0.927842648299954,-0.680950676734967,50.6675422529479,-3.28445186997174,-0.0907634949357587,0.0738242709576796,0.00324149108589951,0.00405186385737439,0,0,0.0324149108589952,0.00648298217179903,-0.00648201400461794,0.00557092067388908,-66.1229936777501,-61.8715187662029,-31.6405156775817,557.80709889093,3.46026223871406,-3.33954085755621,-5.1770577910576,33.8395014939795,61.6930450484827
-0.0361419059833541,-0.0832118989967724,0.996492654594757,9.83537758035674,18.2700098729144,8.77048761634249,-9.50667277360027,-4.91899962976896,4.5453476449511,-1.86782454324183,1.72594277857364,0.925661173863263,-0.0254770011473689,52.0078651961256,-4.33077069207927,-0.0919710058640085,0.078530399821786,0.00324149108589951,0.00405186385737439,0,0,0.0324149108589952,0.00648298217179903,-0.00656825024698812,0.00592605415835066,-70.2645608320058,-67.9640421037179,-31.405052779094,556.069799055644,3.2009394797376,-3.31129200799688,-5.13041521243919,28.2902173048519,65.7395409295461
-0.038338550643962,-0.0772669595797162,1.00280150252186,10.3377609582667,19.4899966076714,9.65725486777138,-9.83995649567268,-5.10782181536471,4.86151042082235,-1.93952341274975,1.84599495114506,0.92340849572323,-0.317621779129765,53.5008106680108,-5.62774216866629,-0.0923219262588102,0.0837107706525318,0.00324149108589951,0.00405426496188247,0.00374360382905558,0.0362074074074067,0.0323908998139144,0.00648778438081518,-0.00659331176445415,0.006316974848593,-74.3409671392328,-74.184612944656,-30.9493910235795,554.302004621918,2.96580176260658,-3.26405569298473,-5.09716573237369,23.9973736219932,69.8982340954074
-0.0609436101628887,-0.0909612753156595,0.971745685414348,10.7313053221121,20.6947515962426,10.586111022029,-10.1160968844582,-5.17394036750361,5.21327863352159,-1.96462970747302,1.97956708992622,0.918881307177002,0.612495602650625,55.2115303715352,-7.335209412897,-0.0930650730584613,0.088285747819786,0.00324149108589951,0.00406687076054985,0.0233975239315979,0.226296296296296,0.0322648418272405,0.00651299597814995,-0.00664638473135824,0.00666221137518515,-78.6564326131129,-81.0665061362278,-30.1704876331219,551.107402683636,2.68878417464927,-3.29190038600606,-5.04099756372999,20.5644124862914,73.1971429448317
-0.0752472548458248,-0.0834594952867524,0.969066061387904,11.0425211403388,21.9480333912428,11.5297573627749,-10.4249852601911,-5.19587068764298,5.53537450991219,-1.97295700840421,2.10187215772058,0.910748403399368,1.24360135324047,57.0724299710017,-7.19947542573942,-0.0923695011283874,0.0928721011302345,0.00324149108589951,0.00407947655921724,0.0430514440341402,0.416385185185186,0.0321387838405667,0.00653820757548473,-0.0065967093966309,0.00700830636729938,-83.1311100439004,-88.4820248773278,-29.0831184018864,545.649727973983,2.35033251642879,-3.41332111081171,-4.93900012830703,16.6294722748893,76.944910592887
-0.0906608891383046,-0.0902303216477667,0.958900134099489,11.2903140868463,23.3346069675745,12.5206048175625,-10.8217462422037,-5.0967441587482,5.82494453291388,-1.93531704550697,2.21182662746204,0.897666379273793,1.47273479756387,58.9381123065564,-7.08927177358231,-0.0937624764305954,0.0982929221644071,0.00324149108589951,0.00408728014886848,-0.00744244717754859,0.599165925925932,0.0320607479440543,0.0065538147547872,-0.00669619086132537,0.00741737188974845,-87.6779895661188,-96.3381582222904,-27.6572437437215,537.102350881944,1.9720132834134,-3.62160340394311,-4.79200034504689,16.1982924519963,81.1283542519675
-0.102429867598771,-0.0915792407944333,0.962749253542562,11.5849017221924,24.7584338163528,13.5165114643739,-11.2492240793206,-5.06163594607548,6.12901725033682,-1.92198588343438,2.32728800727098,0.881715035280607,1.46160067669713,60.6880398962721,-8.37679527258906,-0.0937788412214926,0.103358502168899,0.00324149108589951,0.00409748484302779,-0.109891048921165,0.876026666666653,0.0319587010024612,0.00657422414310583,-0.00669735957793168,0.00779963024470654,-91.9959897503783,-103.944502185664,-26.1574742032574,526.770177378159,1.58961980332807,-3.92495489408247,-4.62084687903231,12.6381219895373,85.3400462771131
-0.0978806341965945,-0.0972574549515635,0.956371416424482,11.7885567128082,26.295652967406,14.5798905499207,-11.7222975055666,-5.0235057618561,6.50545139487697,-1.90750722938198,2.47022620345038,0.863253306602452,2.51062044357171,62.5954215978483,-9.92561342444826,-0.0930001304966141,0.108659364169553,0.00324149108589951,0.00410768953718711,-0.212339650664799,1.15288740740742,0.031856654060868,0.00659463353142446,-0.00664174675883761,0.00819964342906709,-96.3687348651642,-111.687586553606,-24.5983852814463,514.827179391073,1.21114113772965,-4.31934734492415,-4.42981395757917,9.82288448943803,89.9243771516199
-0.103099452417528,-0.101106786537014,0.947790329511036,11.957110961187,27.8453917012882,15.6564987534129,-12.1969700328878,-4.96034976756344,6.86098323091152,-1.88352586628556,2.6052274515152,0.845106941589611,3.29768654492006,64.7392921854316,-11.5414098233049,-0.0921576689195079,0.114605592400539,0.00324149108589951,0.00411189147007624,-0.254524369029817,1.26688888888889,0.0318146347319767,0.00660303739720272,-0.00658158107499059,0.00864835718341829,-100.676719316738,-119.338481421477,-23.0399004514823,503.017730295454,0.85885088141736,-4.7452110431972,-4.23939875163643,5.93401618968152,94.1520858411128
-0.136138999204828,-0.106147436513137,0.923412144022772,12.0207827191774,29.5244573921607,16.789910040266,-12.7428713909215,-4.89861933831811,7.21124862734158,-1.86008581353347,2.73822894640068,0.825961564630702,4.41697311930823,67.1845840781354,-13.0101851674896,-0.0917603933121678,0.11970128133139,0.00324149108589951,0.00410949036556816,-0.255460269987081,1.25783703703704,0.0318326430157873,0.0066090401584729,-0.00655320902902328,0.00903288761554218,-105.537320910685,-127.648608988943,-21.6037015794686,490.3532613108,0.501066897890005,-5.33960123447597,-4.03573861572688,2.62126846437286,98.6385604723047
-0.154264503692835,-0.102327297700099,0.897417336948093,12.0664724640878,31.2161934949038,17.9536423122714,-13.2702298120984,-4.78694879443328,7.53217593286789,-1.81768268315652,2.86009028874167,0.806176022464092,4.5591071032661,69.5744310627826,-13.2271304987897,-0.0918173688241739,0.125957623256209,0.00324149108589951,0.00405906717089861,-0.275114190089623,1.06774814814815,0.0322108169758089,0.00673509814514677,-0.00655727802247714,0.00950500314231617,-110.501404360502,-136.119991784303,-20.1525929235929,477.131359083014,0.152042136598017,-6.09629647154967,-3.83681432753928,2.41627943266142,104.199565149372
-0.170888037361744,-0.0954443769558723,0.883976794694021,12.1184696859666,33.1148894909719,19.1593394854149,-13.9637751913996,-4.68888623881509,7.89545519408621,-1.78044672829932,2.99803336075329,0.784227555630113,5.64775646256548,72.400884195045,-12.8399939767979,-0.0921535847070752,0.133213348644528,0.00324149108589951,0.00400864397622906,-0.294768110192165,0.87765925925926,0.0325889909358305,0.00686115613182064,-0.00658128939470431,0.0100525340565466,-115.280885872319,-144.348503813563,-18.6832884694559,462.455782685289,-0.166215613479785,-6.95352899121611,-3.63618276093902,2.04834657497999,109.639216260815
-0.191172998259465,-0.0993596915940859,0.87294607967119,12.1509173960123,34.9952026759253,20.4198584044397,-14.5853707753714,-4.6607775787209,8.27450992895906,-1.76977341072397,3.14196663790639,0.76070442192055,5.0748812826409,74.9161392496798,-12.0952270529622,-0.0917049110172772,0.140156962615559,0.00324149108589951,0.00399183624467255,-0.301319416893013,0.814296296296297,0.0327150489225044,0.00690317546071193,-0.00654924667595673,0.0105765124463216,-119.700500490589,-152.169522718549,-17.1125484980895,446.746829227592,-0.486756588678136,-7.84859341816323,-3.43107117869701,0.999499871941848,114.8112025666
-0.201949618964969,-0.103637167058157,0.851998849438584,12.1687556664829,37.0746613670089,21.7213843085786,-15.3605594392377,-4.65637960355053,8.65822728516955,-1.76810342768228,3.28767038857561,0.736231004440642,5.65148951701854,77.5860701799123,-12.5215103847205,-0.0918489799845631,0.147577182502239,0.00324149108589951,0.00399183624467255,-0.301319416893013,0.814296296296297,0.0327150489225044,0.00690317546071193,-0.00655953558191214,0.0111364564299907,-123.719200828222,-159.615718765487,-15.3496529717451,430.396538777307,-0.814221318746596,-8.79920018019406,-3.19798971677161,0.586209777858514,119.699004517713
-0.214167170350987,-0.11586703484289,0.837683079036322,12.1877282583614,39.0900625771315,23.0724464609056,-16.025203492116,-4.66074612411045,8.98506427557252,-1.76976146689436,3.41177573483737,0.71064545353395,6.56568116993911,80.2892483125275,-12.5529242719748,-0.0916969952020608,0.15468330786669,0.00324149108589951,0.00396302299057566,-0.229002756838687,0.618865185185178,0.032931148328231,0.00697520859595414,-0.00654868135588915,0.011672698240313,-127.351271257483,-166.68005151975,-13.4218434780376,413.287930572325,-1.17555804088925,-9.78170395864669,-2.90518240450928,0.16233281106704,124.433783082073
-0.238563759964387,-0.118815661030972,0.822170110634621,12.1781926221366,41.2006090576245,24.4645329004695,-16.7422610858729,-4.65833673268623,9.28070937286682,-1.76884658159752,3.52403700956354,0.685229286820692,7.45465122731726,82.746363047658,-12.4252970616654,-0.0915198948739899,0.160748883341201,0.00324149108589951,0.00392220421393841,-0.12655415509507,0.342004444444458,0.0332372891530104,0.00707725553754727,-0.0065360334647123,0.0121304181659097,-130.383877958698,-172.942897716812,-11.4477508071781,396.342136540159,-1.53973422840496,-10.7566476257206,-2.56391375937429,-0.317213798677589,128.227008269606
-0.262501470693298,-0.119693894462701,0.800929046590196,12.1622079586034,43.6133203808867,25.8960783342651,-17.7244910728159,-4.63407705690873,9.64938275283233,-1.75963478626538,3.66402831661144,0.66094539208431,7.98764251687102,85.4646726171559,-11.718459105266,-0.0903094448307282,0.16731561995789,0.00324149108589951,0.00388138543730116,-0.0241055533514362,0.0651437037036908,0.0335434299777898,0.00717930247914041,-0.00644958732094199,0.0126259566697559,-133.010895196029,-178.680415241302,-9.42539668830855,380.133973344498,-1.88080708053136,-11.7560407708426,-2.20178590288164,-1.81270879001571,131.682775377614
-0.285973535488519,-0.120776940089212,0.772538172050582,12.1307315258057,45.9620797785137,27.3800785823491,-18.5896345906314,-4.59499737650477,10.0071056335897,-1.74479559299551,3.79986154016248,0.637152275532987,8.32784019081202,87.8486041978612,-11.712867611363,-0.0899639305196441,0.172457950550142,0.00324149108589951,0.00387178101926886,0,0,0.033615463113032,0.00720331352422114,-0.00642491188722464,0.0130140067708503,-135.781429815142,-184.53470478881,-7.48923477417431,363.984151751706,-2.19345447984026,-12.8154559074077,-1.82816649890274,-2.00725392055903,134.107463603819
-0.320430665208004,-0.117659535122539,0.75066674252028,12.1053023100772,48.2631780492116,28.9082269372802,-19.3622665224536,-4.54384695169721,10.3536353247244,-1.72537294082156,3.93144452670028,0.61411339442382,9.19708172989238,90.4042133681106,-11.8656989326591,-0.0876518136582567,0.179632755910828,0.00324149108589951,0.00387178101926886,0,0,0.033615463113032,0.00720331352422114,-0.00625978852031997,0.0135554313050375,-138.842493362712,-190.136250811892,-6.21668633535233,347.947024992862,-2.43279331523803,-13.9128705349179,-1.46710813425368,-1.69088695242229,137.136644887877
-0.382137091854217,-0.0922176465587782,0.753112479777894,12.0764281157052,50.6238062590776,30.4926694353946,-20.1376753868318,-4.50715273816981,10.5996090078157,-1.71143954830682,4.02484475374828,0.590537359767704,9.06480856064764,92.1437632291044,-11.3176499740397,-0.0859219719203478,0.18635674375522,0.00324149108589951,0.00387178101926886,0,0,0.033615463113032,0.00720331352422114,-0.00613624922317375,0.0140628362872658,-141.472821399903,-194.82827165094,-5.24451107998995,331.499771610719,-2.58729773507975,-14.9340397114407,-1.12878994243356,-2.44426904260931,139.813653683103
-0.446395752837131,-0.0749639231817607,0.726428313071167,12.0100509876157,53.1904907839179,32.0826445035603,-21.1140432312515,-4.4436710891131,10.7772497669854,-1.6873345287748,4.09229785292097,0.565587436057048,8.8340353815646,92.2729954253114,-10.6043182910661,-0.0850561920634623,0.190115932765108,0.00324149108589951,0.00387178101926886,0,0,0.033615463113032,0.00720331352422114,-0.00607441822866192,0.0143465118793248,-142.659527452696,-197.394409871224,-4.35662865411537,314.611120601416,-2.66230699871722,-15.7670471725012,-0.832998280382037,-3.45098924363227,139.398610979884
-0.546906380975089,-0.0618387559687923,0.677389950002374,11.9353145671366,55.5188050714098,33.6866941934307,-21.8395706655051,-4.35821558326996,11.0298320134778,-1.65488567673525,4.18820745948623,0.539629134426055,7.01095627295286,90.3411160592677,-8.69313729917478,-0.0835417699388017,0.191218506948278,0.00324149108589951,0.00387178101926886,0,0,0.033615463113032,0.00720331352422114,-0.00596626345313348,0.0144297142358377,-142.859450131812,-198.534669316471,-3.49910257310059,297.311628211265,-2.69053660039388,-16.5497871574173,-0.553988697537205,-4.91469008521031,136.111008885092
-0.647024455530629,-0.0267396026515931,0.646871691816567,11.8431987181332,57.9018154699867,35.241443797214,-22.6675516626499,-4.24910724442242,11.2180280901413,-1.61345545748123,4.25966858520101,0.51239889138872,6.30238356285948,87.7850068801011,-8.00021038095955,-0.0817738549931293,0.191411120058336,0.00324149108589951,0.00387898433279309,0.104300057985172,0.612462222222246,0.0335434299777898,0.00721772015126959,-0.00584000509954173,0.0144442491894913,-142.059484559571,-198.187384897528,-2.71506483034842,279.372955796684,-2.66717624903483,-17.2643025024444,-0.305272984158036,-6.65701874358601,132.767272496374
-0.719539001077626,-0.00540844755951492,0.628865283384807,11.7222803780175,60.1650941553956,36.7797287668984,-23.3933230375379,-4.13037611458754,11.2385419879445,-1.5683713072385,4.26745804742469,0.482224280256786,3.14451836652558,83.9548170599429,-4.0453859156704,-0.0798266556938731,0.191054422818329,0.00324149108589951,0.00390029413530224,0.429486983855704,2.45495308641973,0.0333303319526983,0.00726033975628789,-0.00570094287924607,0.0144173321335841,-138.912905463666,-194.346075692546,-2.1064392028229,260.575908268345,-2.58209181086109,-17.6680563459112,-0.062354041381985,-8.76689146348028,127.610886059569
-0.785202656906707,-0.00391745928208535,0.589286798152279,11.4841347201089,62.4949033968351,38.219083710487,-24.2817791062723,-3.960063956826,11.0749011780576,-1.5037009977808,4.20532095777478,0.448216551273119,-1.27326502721122,76.4380816946342,1.05366265646729,-0.075768782472909,0.187049385730052,0.00324149108589951,0.00392760669908158,0.854874992794247,4.86034962962967,0.0330572063149049,0.00731496488384657,-0.00541114364811388,0.0141151043753505,-132.748421065133,-186.440566097737,-1.29405135618754,240.778309532223,-2.45185200761783,-17.6524349769253,0.175576672031135,-12.9312682632788,117.732984506819
-0.817516382095928,0.00182138930771731,0.561256675153538,11.197069786346,64.5020533955669,39.518582145319,-24.9905764077527,-3.71989503029561,10.9060945477593,-1.41250493165738,4.14122232169746,0.411347436237879,-5.38139316964921,67.329249181585,5.96441008179383,-0.0684856342276962,0.177516237831418,0.00324149108589951,0.00396542409508374,1.43787753939431,8.2740128395062,0.0326790323548833,0.00739059967585089,-0.0048910064612791,0.0133957148029673,-124.307488879221,-175.156126051554,-0.641210625984035,220.216143022379,-2.27668197798255,-17.2891138290677,0.365540564132161,-16.7678811268002,104.648535587439
-0.850445527897309,-0.00384470120683466,0.548962443959306,10.9131159926643,66.2719426643379,40.6658417590108,-25.613286751506,-3.43066532116641,10.5163658393744,-1.30267968465454,3.99323596237311,0.374267555417875,-9.65640915560654,59.1153056178037,10.2325271629985,-0.0626450852040653,0.165543138571145,0.00324149108589951,0.00400624287172099,2.06894877298637,11.9792444444444,0.0322708445885107,0.0074722372291254,-0.00447389470734511,0.0124922018344773,-114.731323762446,-162.101056291803,-0.153537802066481,200.087942621314,-2.08400950487803,-16.7286264368464,0.487947930297765,-18.7655504183426,90.3373701193436
-0.939134933167824,0.0173613753698262,0.570746712935778,10.6260306207426,67.8049346153276,41.697301295355,-26.1142890205578,-3.15676888572096,9.94313719267345,-1.19867673223808,3.77557167780646,0.336599854289978,-12.1755309647951,53.0577741360194,11.9841577437202,-0.0557590103316841,0.152600366310531,0.00324149108589951,0.0041010864997899,3.59821466719564,20.6151367901234,0.0313224083078216,0.00766192448526322,-0.00398211512359048,0.0115155154869017,-103.87092570624,-147.085576417771,0.189904547758176,180.323031254398,-1.83127427901808,-15.9602253415653,0.517291206693119,-19.8998089334898,76.7658352302698
-0.943260967144067,0.0340988200458342,0.585083312052757,10.2485753683933,69.0188603685863,42.5806799159048,-26.4458927659253,-2.81741790428853,9.22910850387591,-1.06981961908508,3.50444331637224,0.299923465740215,-15.4227556279231,43.6640091783577,14.506866058543,-0.0476454141754663,0.137374761892233,0.00324149108589951,0.00418692598595354,4.99103094915956,28.422950617284,0.0304640134461853,0.00783360345759049,-0.0034026702272735,0.0103665622588369,-92.0831652277009,-130.747448797523,0.522187666266266,161.926740136065,-1.54760384458703,-14.9651557936125,0.460730949139182,-20.0138769744522,64.298451994053
-0.918009969155682,0.02880889441745,0.62944052790987,9.92619407729038,70.1081993198539,43.3029052188142,-26.8122622701846,-2.54836815042209,8.36050545950723,-0.9676570308662,3.17462054615125,0.262686716305782,-19.7073979814734,34.0011656497066,18.9995490027868,-0.0321013557687339,0.116239610215213,0.00324149108589951,0.00414760789963383,5.05648874375642,28.6829632098766,0.0307191308001681,0.0080034816015367,-0.00229256748880631,0.0087716632927396,-78.9273097245987,-112.315561121877,0.695489267727687,144.097903533761,-1.28259089351758,-13.6218163907216,0.390826150173888,-21.0713670988913,52.2203410205846
-0.896967411523987,0.0307481906289243,0.682329509879018,9.63974841788666,70.9817759380331,43.8462027983021,-27.1422352690221,-2.21560728122512,7.50428980151722,-0.841302291021307,2.84950146896669,0.225605181039622,-25.2218986428452,23.6092717383273,23.5872632467956,-0.0242345543891796,0.099635559911433,0.00324149108589951,0.00406867158893091,4.79357348009345,28.5444009876543,0.0312503751725794,0.00831022270244313,-0.00173074781945675,0.00751868990190651,-64.5748623081259,-92.2220266054664,0.899380540939538,127.31665473316,-1.03379552004542,-12.0092635683123,0.312290346823541,-15.9590757355657,44.1948368366213
-0.878291774573513,-0.00339346520684087,0.709895786595116,9.40322012324558,71.7505626204375,44.1817373994443,-27.5766609611201,-1.80698344671967,6.43022624369147,-0.68614114353435,2.44166198425365,0.188656982052956,-30.6505682244514,11.0739406061829,28.2857666365873,-0.0253711640462173,0.0922587056756798,0.00324149108589951,0.00386787922444324,4.14022983828582,28.0329713580247,0.0326009964583709,0.00909178221982112,-0.0018119205389506,0.0069620183731923,-49.3757920376588,-70.981506442541,1.15359168997056,111.245698147156,-0.790325853479439,-10.265849256165,0.219023069402525,-11.5668613203423,34.652303860799
-0.795681926401781,-0.0322307888485909,0.745754294301568,9.24260251258936,72.3104071952029,44.3207397478709,-27.9976716802566,-1.50034805329549,5.49817375642035,-0.569706673769773,2.08774642370372,0.154490621634185,-35.4552106668704,0.358267386706515,31.0401483956066,-0.0269632234417826,0.0912903339320764,0.00324149108589951,0.00365207995678012,3.91119385018128,28.1768711111112,0.0340296536406747,0.00997298757428416,-0.00192561989909029,0.00688894318942865,-34.9266747428484,-50.6020788911147,1.20830178118459,96.5940704240364,-0.592353388566853,-8.5936938167288,0.175418322500604,-10.3113705606641,25.0789173209471
-0.725843931857646,-0.0740557451604599,0.751985473034016,9.00218992906495,72.6276414836032,44.2629949401586,-28.372571885282,-1.30540508899358,4.77910153278615,-0.495683644564437,1.8147029496731,0.123714221602812,-39.8997322064455,-10.9157543779753,32.2009300811547,-0.0339663397181037,0.0931931875458002,0.00324149108589951,0.0034005642595594,3.55984849255521,26.5434851851853,0.0357614502671228,0.010880004802209,-0.00242575817396843,0.00703253616228923,-21.500504156753,-31.8003983885217,1.39409381218259,83.6075730669078,-0.441741970328,-7.06035206959445,0.144588844343422,-10.9084879735186,10.9366641157176
-0.70341913884232,-0.101470257440224,0.746565570581689,8.77415016924529,72.7466086557517,44.0276961715726,-28.7267117978201,-1.24730768720484,4.44105025988963,-0.473623111706726,1.68633935709037,0.099426890083916,-42.0647770191046,-21.770321902887,31.2412465489501,-0.0370675223248754,0.108733527458108,0.00324149108589951,0.00317426015967345,2.83447506468231,22.4510261728397,0.0374212137583288,0.0115132961162134,-0.00264723387961639,0.0082052399326572,-11.3039344230348,-17.5572147891536,1.57103741992172,72.7736045706385,-0.332226470259939,-5.92848515025605,0.0760350000202812,-14.3618543551191,-1.88800148694909
-0.681239498964289,-0.111512731634312,0.6926170928897,8.4518995221815,72.5403640486924,43.5338515749324,-29.0134515518189,-1.2662080026239,4.40530295722172,-0.480799870330796,1.67276552210292,0.0810646147083226,-41.4903757032493,-37.7469540300704,28.4426255751336,-0.0356192073146935,0.117807656296831,0.00324149108589951,0.00301578726214059,2.57727659603328,19.0302558024692,0.0386097604898253,0.0119094783600456,-0.0025438002449184,0.00888999104891485,-4.16032225431697,-7.65296145405933,1.76937729816166,63.7283523575796,-0.261893177533764,-5.13926377249236,-0.01854038869404,-19.2557377765177,-21.2869235821515
-0.639030653808326,-0.114030637640563,0.614044907854655,8.01926011487601,71.9687747017347,42.7125616906634,-29.2639753414475,-1.25627494611231,4.71678396349736,-0.477028126452327,1.79103995025177,0.0649619349319842,-41.0797430832885,-58.7316702275415,26.9548527368931,-0.0387654729258732,0.130717124943875,0.00324149108589951,0.00277627708746023,2.07954547766552,13.7421491358024,0.0404045861096104,0.0125109550393181,-0.00276849562237549,0.00986416424211803,2.00358817024431,0.582128449074128,2.25137311469567,55.3632671416529,-0.226833243664007,-4.5214691201696,-0.0697872296576061,-24.7526819323044,-43.1623843199209
-0.55042982778383,-0.138005860572792,0.609124030434636,7.54949376549695,71.0278507516579,41.4969222040268,-29.5376230058473,-1.31369160877038,4.83412483931232,-0.498830171537827,1.8355961983243,0.0524743915268746,-41.6342600527329,-78.7151528423475,27.3913314823913,-0.0313852486017997,0.129265206113796,0.00324149108589951,0.00256738099525782,1.79468876206753,11.1835116049383,0.0418932709046161,0.0131736598835464,-0.00224142559868671,0.00975459967043493,7.18667468216995,6.91324483198026,3.25024797190784,48.7632996190792,-0.254783058174549,-4.03622758435201,-0.0484367854209248,-28.3151714055344,-66.1633503734814
-0.4883469348932,-0.157655027316102,0.56344768347968,7.01783204819095,69.670594772789,39.9667554503526,-29.7111525015871,-1.14686381889887,4.66748876098725,-0.435482933507757,1.77232175630126,0.0428832345231492,-39.9746340479798,-98.9370956744645,25.2933205127649,-0.0310018660765623,0.136235081196196,0.00324149108589951,0.00235308241791224,1.49649206688298,9.12491358024678,0.0433999639834324,0.0138903895792064,-0.00221404574845647,0.0102805597738977,11.7928637914676,12.4587871435188,4.2188407695933,43.7507090768424,-0.310820425394706,-3.55817833514815,-0.0644339312593269,-31.2147477452487,-88.3581111110378
-0.402113263610181,-0.15972199334032,0.591118884382297,6.45126688221338,67.9365006061089,38.0609602094007,-29.8840285516359,-0.994151692893089,4.73697921552641,-0.377495643718588,1.79870841746785,0.0370904447490615,-36.4449877698102,-118.733037431669,20.9830403664234,-0.0263304189710501,0.136971977986331,0.00324149108589951,0.00227294555495528,1.52025174379373,9.58410271604942,0.0439192028333033,0.0142379494567501,-0.00188042719860673,0.0103361674149814,15.2081388143472,16.732369935032,4.77518623467046,40.4211476404254,-0.335637030223845,-3.18152281334934,-0.15403019743696,-33.8946390942808,-108.623948109689
-0.408186223316894,-0.159464383311568,0.596754784153527,5.88453132231283,65.8732651293481,35.8573676797505,-30.0240040378354,-0.843448288989342,4.4273369600554,-0.320271098537086,1.68113219304747,0.0317116998641311,-33.1139460332702,-135.592458351123,17.4620613164684,-0.0251550683394111,0.142674321662708,0.00324149108589951,0.00228104928267003,1.73250187349739,10.8117530864198,0.0438201572723453,0.0142865718230386,-0.00179648773307587,0.0107664771744176,19.1461153832187,21.8414679844943,5.23522805721373,37.520553014229,-0.335215989787987,-2.69634014406036,-0.21412719561563,-33.5052115417998,-127.173804589123
-0.37691579879628,-0.146042718653253,0.59617754727637,5.40257748282012,63.5678246443553,33.289950104734,-30.2849208222546,-0.648017315914661,4.10572435807775,-0.246062764425935,1.55901063244512,0.0247265944540625,-29.583160796594,-152.311645161632,14.3474245921393,-0.0235097386388524,0.137136826509225,0.00324149108589951,0.00222462332673029,1.54735658843754,9.55047037037031,0.0442433519418933,0.0144276367128879,-0.00167898399251603,0.0103486071997885,24.2359357514832,28.8765365310065,5.39825250554393,33.8184519213466,-0.30691269582784,-2.06683892589506,-0.264742505499087,-31.7699837944668,-146.759388966039
-0.355030543040142,-0.132556557446488,0.633041345262636,4.83018918103519,60.6598533393028,30.465057201904,-30.2022267982463,-0.675497696585363,3.71103300631853,-0.256497514037163,1.40913987633454,0.0181449762028087,-24.9242630003518,-168.221775649411,10.0873255785391,-0.0148239778716289,0.118134759651679,0.00324149108589951,0.00208896092202413,1.08563832853514,6.55673580246908,0.0452608199771895,0.0147667927246534,-0.00105867708417416,0.00891467489365023,29.2757229943246,36.0175699093367,5.38455459751498,29.9625806391348,-0.275972778855238,-1.43278894469883,-0.318208469745802,-29.930134719734,-163.72405532773
-0.342769157127605,-0.11144996750196,0.740848708777018,4.43695977397226,57.8490640706378,27.4402418397286,-30.4168536721729,-0.639961027539232,3.08215317630113,-0.243003660077971,1.17034392803896,0.010699063667506,-21.9051112889507,-176.60186188553,7.53768463234196,-0.016403766216168,0.113192351460635,0.00324149108589951,0.00197490845789063,0.679074136241404,3.96096296296294,0.0461162134581908,0.0150519238849871,-0.00117150008841042,0.0085417113192985,35.3737499053024,44.5629430590311,5.4630938090415,25.664393952208,-0.225411983055706,-0.642476340346699,-0.357622142820676,-25.8767528328615,-173.952182185286
-0.33197145941575,-0.105307848415525,0.80338247010351,3.96685618508652,54.5606658147719,24.3010099969266,-30.2677922054624,-0.500372243854384,2.43150705495574,-0.18999951782312,0.923282963232368,0.00420853915728166,-19.5254116501144,-183.246693552165,5.29563436176749,-0.0187736847195756,0.109190157282864,0.00324149108589951,0.00192088360645897,0.484396564294023,2.6942962962963,0.0465213998439282,0.0151869860135662,-0.0013407514481092,0.00823969809252859,40.7688671509939,52.2450551439334,5.41082970358908,21.2036926729421,-0.177964586275344,0.0888058201200052,-0.36368143106502,-21.5368134285705,-186.090687052155
-0.314649570837318,-0.103757135013881,0.823090380711762,3.64986065393017,51.4402505633219,21.0387590165757,-30.4085560630354,-0.43240245620412,1.98054183742793,-0.164190278724221,0.75204410069023,0.000975964852924522,-17.2521729906611,-187.505154385217,2.08025075099679,-0.0211438505241948,0.103864220220805,0.00324149108589951,0.00190407587490246,0.416581045292866,2.31709481481485,0.046647457830602,0.0152290053424575,-0.00151002046920279,0.00783779269607886,44.512830359429,57.2766649929587,5.67398340095871,17.7543533551978,-0.183335922958955,0.538002058758822,-0.350178417622706,-18.7072386946067,-194.420340648841
-0.259785395011046,-0.0952081313393514,0.844481383274063,3.41044764549415,47.9490621857499,17.7139125023968,-30.2424459034694,-0.491956950047181,1.60585234855994,-0.186804093246025,0.609768378779828,0.00121588578117428,-13.3616999105546,-189.911024067331,-1.50056645338518,-0.021782948488347,0.0962818013036734,0.00324149108589951,0.00185365268023291,0.213134488289369,1.18549037037037,0.0470256317906237,0.0153550633291314,-0.00155566262915806,0.00726560886336958,46.4963687931628,59.8134264483373,5.94236890005466,15.623902627158,-0.222457824246902,0.742765014038712,-0.330909336747421,-15.2445709097509,-199.370595593127
-0.167920856249419,-0.0817084431901841,0.870044696770175,3.1114342978408,44.0851022515687,14.3417898761512,-29.7503868237765,-0.4735074079151,1.14696900301651,-0.179798500605333,0.435522873636092,0.00214732982723216,-10.8712255601242,-191.26987404061,-5.28688275646107,-0.0217358226344125,0.0796841935553611,0.00324149108589951,0.00180923224683354,0.0265138028436371,0.144256296296242,0.0473437781379435,0.0154931268383456,-0.00155229706412115,0.00601312164009338,47.2799820799861,60.6016034857919,6.26238840048128,13.4297863006262,-0.262196681015475,0.813222411597097,-0.310865023032633,-10.4602013441869,-204.221167560843
-0.127917168350424,-0.0698711620372029,0.927417367035733,2.92704014953899,40.5760436247103,10.957806461522,-29.6252146924472,-0.528749648252121,0.76672670300633,-0.200774882002214,0.291138658593755,0.00137995147071902,-8.20653319117891,-188.040713112123,-9.08732015907883,-0.0210192931908949,0.0680095251435553,0.00324149108589951,0.00183084218740621,0.0841293577888323,0.451851851851852,0.0471216759709466,0.0155471516897773,-0.0015011250164726,0.00513212883417169,48.7814494170327,62.4132961297992,6.57409122798558,10.2956422858503,-0.265903473844061,0.992919547064707,-0.29895230125108,-8.48819039352062,-201.048800685735
-0.0952223618682046,-0.0761455635212054,0.983949439976082,2.76667702220762,37.0010599799768,7.6614811356176,-29.3462709887209,-0.601013228445187,0.33880087640865,-0.228214544296613,0.128648229285929,0.000455247211739438,-6.25689709600027,-181.315994280345,-13.3076107697668,-0.0236910886320345,0.0653961088844003,0.00324149108589951,0.00173479800708326,0.0168258715577655,0.0903703703703653,0.0478420073233687,0.0157872621405847,-0.0016919353800356,0.00493491544515021,50.8066413667192,65.1267878731508,6.7246534062894,7.11258249541753,-0.267775410038555,1.27071855364982,-0.282982823303124,-6.7310813588517,-194.593301458976
-0.0650206336602377,-0.0682721869292797,0.989474957202045,2.65938028034601,33.6389255906682,4.51681161719778,-29.1284396004333,-0.636496573599962,0.0584144426579064,-0.241688150302866,0.0221809184566568,0.00268583245558965,-2.83308546780419,-173.456266834401,-17.8680901302228,-0.0256831224345936,0.0586705305483799,0.00324149108589951,0.00171078696200252,0,0,0.0480220901614743,0.0158472897532865,-0.00183419952505338,0.0044273904413818,52.2421793271205,66.8649215690113,7.01667696332989,5.75771002503457,-0.307411525042355,1.46343037788391,-0.263412382145319,-4.5604768289186,-189.626766148039
-0.0136582539542096,-0.0634866925423061,0.980147713806285,2.56036960522022,30.3425290133891,1.52222399330585,-28.8273857054279,-0.679275340796425,-0.0449613437558529,-0.257931947276466,-0.0170725569597694,0.0078294597506599,-0.985556633891792,-163.991429482377,-20.2545367619962,-0.0254185778165502,0.0489142040272446,0.00324149108589951,0.00171078696200252,0,0,0.0480220901614743,0.0158472897532865,-0.00181530666597807,0.00369115938332011,52.5771498236535,67.252676762522,7.10264158901106,6.13785394451419,-0.343743563986686,1.49256174150894,-0.264909772390506,-4.3316127517859,-182.205655028332
0.0423363069815307,-0.0722648615190324,0.959138960009654,2.49164427254438,27.2783895311426,-1.25871195800071,-28.5441218307926,-0.771223224734612,-0.144633142538929,-0.292846061373881,-0.0549195677441217,0.013626390074832,2.27116208079404,-153.248596924677,-22.2907837629334,-0.024657848228978,0.0417888892107559,0.00324149108589951,0.00171078696200252,0,0,0.0480220901614743,0.0158472897532865,-0.00176097799734471,0.00315346950024764,52.1419270419038,66.5169502315743,7.2228701593545,7.10405817847744,-0.383808226317989,1.40432404318167,-0.267360545939715,-4.0842225249812,-171.631171368563
0.0921202239342763,-0.0609319962252696,0.939139483918168,2.43750019081398,24.3459618156614,-3.88774395552786,-28.2415842441584,-0.837450646083991,-0.252752521268186,-0.31799369551546,-0.0959742626801429,0.0196085151648343,5.51180403313325,-141.190398654859,-27.178424605096,-0.0242857456096519,0.034965651153995,0.00324149108589951,0.00171078696200252,0,0,0.0480220901614743,0.0158472897532865,-0.00173440371887148,0.00263857490717992,51.2133110713097,65.1968158927736,7.22974319830481,8.41559057433426,-0.398299119124591,1.27791160663471,-0.267866682106528,-3.59430652206074,-159.535029811807
0.0991569885076586,-0.056360412783136,0.934268060389968,2.38456788339918,21.706147755153,-6.22368361462367,-27.938164503652,-0.860513754417676,-0.378572265320485,-0.326751134635479,-0.143750075579793,0.0247852197026414,7.33688830645943,-128.792641606007,-30.4619769128192,-0.0240945851663557,0.0297548119152168,0.00324149108589951,0.00171078696200252,0,0,0.0480220901614743,0.0158472897532865,-0.00172075170303128,0.00224535501259724,50.1938380527565,64.0595161949332,6.92529032683384,9.61707586654802,-0.367207302515773,1.18399154382761,-0.26227840618053,-3.04928591533282,-146.887521374025
0.129632747950012,-0.0473154432418456,0.929073112663844,2.34718999459243,19.233049260969,-8.36048387525816,-27.6004354387015,-0.83627642279995,-0.458900592247665,-0.317547823745942,-0.174252053999171,0.0292379295155643,8.88297208240931,-115.377906066301,-31.8683724382474,-0.0238919583014278,0.0251477613444572,0.00324149108589951,0.00171078696200252,0,0,0.0480220901614743,0.0158472897532865,-0.00170628079512822,0.00189769816563684,49.1397314592861,63.1124149478984,6.38165973319584,10.6654378274136,-0.289450338078264,1.12078469279767,-0.256021543426331,-2.66763601252754,-133.562522314718
0.14000921296986,-0.0411507333261697,0.90595136168308,2.3173502770826,17.0267563882589,-10.2184160037886,-27.2523096865711,-0.837698478847977,-0.499797805773825,-0.318087801665903,-0.189781394296753,0.0330638116947049,9.79367832859849,-101.631277483529,-32.7135330752059,-0.0238410917396001,0.0216385817582348,0.00324149108589951,0.00171078696200252,0,0,0.0480220901614743,0.0158472897532865,-0.00170264808170784,0.00163288876282563,48.2558143821704,62.2628425335747,5.98118462904935,11.6367055801014,-0.203330570297961,1.0704119216157,-0.245825244014306,-2.26149031994819,-119.746319010644
0.139196376733838,-0.0376153289587919,0.880435569125666,2.28202773917422,15.0720627644497,-11.8471873093809,-26.9269526410271,-0.835321225981553,-0.486207812106008,-0.317185119904651,-0.18462105162024,0.036538405191779,10.1745767746546,-88.3190267775447,-30.0764585367969,-0.0237446687678252,0.0191909484212434,0.00324149108589951,0.00171078696200252,0,0,0.0480220901614743,0.0158472897532865,-0.00169576188749668,0.00144818567016709,47.36208422357,61.4599458924497,5.52015595877991,12.6620370832429,-0.122432836141473,0.997837664932549,-0.22398102437695,-1.82132345824889,-105.420662474528
0.135465940635995,-0.0351427644230197,0.862301609858478,2.25969416448603,13.40781476166,-13.2480550917715,-26.6643402691921,-0.824357330414908,-0.465374408182202,-0.313021949591527,-0.176710267701359,0.0395608224858801,10.4667693043545,-75.8663244817144,-26.666474281506,-0.0237646770604901,0.0174592598737744,0.00324149108589951,0.00171078696200252,0,0,0.0480220901614743,0.0158472897532865,-0.00169719081036213,0.00131750914055581,46.361427848714,60.654378445179,4.91058158945406,13.6849268549326,-0.0457293386984603,0.926790580148427,-0.206539231267427,-1.37019113208097,-92.0783270438207
0.132665405577318,-0.0375717975702561,0.847336905616597,2.24436831966428,11.9877446801245,-14.4064320647949,-26.4022015313887,-0.823775022218611,-0.398145213767123,-0.312800837653606,-0.151182243956263,0.0422254578750819,9.43595626796963,-63.1097907638535,-20.841565820383,-0.0238609096857241,0.0166129214776242,0.00324149108589951,0.00171078696200252,0,0,0.0480220901614743,0.0158472897532865,-0.00170406341068355,0.00125364282657728,45.6802742244232,59.8693146880419,4.73234865305954,14.653691150503,0.0206323280333079,0.85365954744546,-0.19783399152044,-1.02243510426152,-78.9474002202976
0.133582944370471,-0.044134464541316,0.833782242512229,2.23298916182154,10.7347645941423,-15.3782560023793,-26.1203623121143,-0.828180619949599,-0.303622055444282,-0.314473715106125,-0.115290256091155,0.0442299690857178,8.84381843545423,-51.6741595853682,-15.2687212965037,-0.0239255836541887,0.0159567277881016,0.00324149108589951,0.00171078696200252,0,0,0.0480220901614743,0.0158472897532865,-0.00170868220119639,0.00120412519580877,44.8639183186271,58.985099960319,4.46206178708219,15.4262295883486,0.0775023384167973,0.778465133159139,-0.188578725010956,-0.770132145123688,-66.7527595333732
0.132799688536861,-0.0531841668348509,0.834322448686088,2.22107136995372,9.76574425665368,-16.1394031893489,-25.9129821205736,-0.838331681693383,-0.195640639105522,-0.318328239133786,-0.0742879477293181,0.0454117688689297,7.31681082393336,-41.116355330641,-9.16402027583407,-0.0238686465314663,0.0159438529055568,0.00324149108589951,0.00171078696200252,0,0,0.0480220901614743,0.0158472897532865,-0.00170461594937201,0.00120315363254899,43.981870392582,58.0914489353837,4.10830867234141,15.8869576616812,0.105123576848644,0.691214606172681,-0.1819396521569,-0.665727476732025,-56.0374882127713
0.131806180137833,-0.0682395158835121,0.823297542219608,2.21246078092418,8.88060175861958,-16.7180351901719,-25.6069262572402,-0.846081031194685,-0.0914286881338204,-0.321270793775404,-0.0347169669660605,0.0461185196127663,6.71764081223944,-30.3909559210799,-2.82410260653756,-0.0238804611888333,0.0160037422022979,0.00324149108589951,0.00171078696200252,0,0,0.0480220901614743,0.0158472897532865,-0.00170545971122326,0.00120767299341814,43.2763618621558,57.2608902522431,3.9411276233834,16.1480605960864,0.100446438827469,0.607077833150364,-0.17459097414455,-0.45370751996038,-45.8479721006876
0.136406167956626,-0.0786603223489921,0.816758325717095,2.20708843801771,8.2063425838617,-17.1197632914651,-25.3330875779656,-0.842155106732959,0.00206433192303378,-0.319780056101803,0.000783860565450216,0.0466192181906522,5.96902183380924,-21.4425980090955,-0.00903494346967558,-0.023983325519599,0.0164022921179018,0.00324149108589951,0.00171078696200252,0,0,0.0480220901614743,0.0158472897532865,-0.00171280592495236,0.00123774833226825,42.747371447072,56.497854388243,3.95605806800665,16.3588318192647,0.0961397381660936,0.520808433548183,-0.17942768008831,-0.256849376335051,-36.9668357851125
0.133640053443639,-0.0875614673360328,0.826816038105568,2.2023878717286,7.69097851932505,-17.3624302809135,-25.061212808061,-0.841227800803812,0.0996412040123671,-0.319427942886939,0.0378353934499498,0.0465094960100724,5.43199003720967,-13.149445174703,2.03609945938481,-0.0239674818294964,0.016964838923951,0.00324149108589951,0.00171078696200252,0,0,0.0480220901614743,0.0158472897532865,-0.00171167442355742,0.00128019919011209,42.2272174708862,55.8904003506159,3.82790329798947,16.2922280265071,0.107182582999133,0.448941810448997,-0.188612407615198,-0.218602171459261,-29.5184916134017
0.129220002641235,-0.0961988915645072,0.848165423350278,2.19926067964735,7.27785222644056,-17.4624925144047,-24.7473198997052,-0.835488605626099,0.185935326697533,-0.317248676690919,0.0706026820086696,0.0455256910744273,4.94590920320088,-5.59256542981355,2.41418616062782,-0.0239543056281017,0.017419182190573,0.00324149108589951,0.00171078696200252,0,0,0.0480220901614743,0.0158472897532865,-0.00171073342495409,0.00131448480193368,41.6921530517563,55.3219170807902,3.63969120953828,15.7714639231203,0.114610823350701,0.394114095004474,-0.192145832397691,-0.157220914093696,-23.6044681652731
0.124071982961356,-0.101234917087069,0.847995945358763,2.19766124369016,6.96895112466772,-17.4458704528982,-24.4228236616816,-0.838481337769035,0.261941733844379,-0.318385065991316,0.0994635568608146,0.044094486497569,4.76174730187696,1.75927686454325,2.28754336243798,-0.0239835147506233,0.0178356567871056,0.00324149108589951,0.00171078696200252,0,0,0.0480220901614743,0.0158472897532865,-0.00171281943917579,0.00134591277148726,41.5763047294631,55.2000563695298,3.59771765223356,14.9104819539545,0.120527839239261,0.375489313668903,-0.198660918731344,-0.108412225478621,-18.9117940231763
0.119203907374169,-0.106180479598256,0.859269071473757,2.1926504474461,6.71043884596063,-17.3116369339887,-24.0303067451527,-0.840009620082891,0.323978781184896,-0.318965379760308,0.123020037514243,0.0423151646580211,4.5173900861687,8.59790921756173,0.759049933438387,-0.0239440543818387,0.0180786138548609,0.00324149108589951,0.00171078696200252,0,0,0.0480220901614743,0.0158472897532865,-0.00171000131650136,0.00136424677647054,41.5422430396239,55.2065249607057,3.54307855732976,13.8794552522032,0.141334421727699,0.38012113461398,-0.20098378628337,-0.109872103477155,-15.4886083029773
0.105854813674325,-0.111442993174055,0.86723982018083,2.18804743387369,6.50371962897322,-17.0554825734646,-23.5678693746841,-0.839487448904571,0.373525445905699,-0.318767102830841,0.141833715775413,0.0402177204160375,3.83191453653011,15.347280830042,-0.74493791475083,-0.023824729044173,0.0181463600704127,0.00324149108589951,0.00171078696200252,0,0,0.0480220901614743,0.0158472897532865,-0.00170147951475274,0.00136935903545934,41.547166897639,55.2979252284897,3.45864167632988,12.7164299394345,0.168817235843559,0.389951595406395,-0.2002375606517,-0.239263176650991,-13.0192814973287
0.0974201022750563,-0.112842713614475,0.889711667276133,2.1821164703234,6.33687218074352,-16.6872411534292,-23.0313939219506,-0.840313938314562,0.410804410064037,-0.319080934365889,0.155989147660422,0.0376185113729068,3.23275753319875,21.5699791304776,-2.68305631329775,-0.0237004078258708,0.0181260776941948,0.00324149108589951,0.00171078696200252,0,0,0.0480220901614743,0.0158472897532865,-0.00169260092453674,0.00136782848856031,41.5111923234801,55.4093639297822,3.29632724436127,11.3268081579132,0.190374495323659,0.400185223355831,-0.194155378645576,-0.323942048446944,-11.3693512244353
0.0899487492157067,-0.113635254213397,0.903735471062753,2.17560215683671,6.17857732082183,-16.1592243650563,-22.3445573434285,-0.839518717999322,0.436563857366266,-0.318778976217102,0.165770430749013,0.0352545977618047,2.39618901185148,28.0993848427677,-4.60026031189461,-0.0235447439132683,0.0179409406284877,0.00324149108589951,0.00171078696200252,0,0,0.0480220901614743,0.0158472897532865,-0.00168148394780268,0.00135385769151116,41.5909959770368,55.6064929057973,3.21205767753295,10.1653173347685,0.216437178675122,0.409996086854088,-0.183329040805662,-0.498215814759695,-10.2785472234424
0.0956727874229518,-0.112461626841131,0.925603268301574,2.16811438691008,6.03686042913793,-15.4262600153501,-21.4720496749663,-0.834304973637355,0.448356422116767,-0.316799232282474,0.170248260292942,0.0308178718356067,1.56561584429166,33.2226947437183,-6.32204588964328,-0.0235610472541314,0.0176897516402298,0.00324149108589951,0.00173389759289273,0.0395570746991382,0.344218518518517,0.0477909838525722,0.0158935110150669,-0.00168264827586069,0.00133490249006337,41.6061357584085,55.7918928023184,3.04806866515912,7.86971961193503,0.248059716614282,0.449381934031376,-0.178238914588845,-0.203977630715821,-9.51867176949134
0.113378993778138,-0.115456772122848,0.942794874565843,2.16727257137189,5.92567808664868,-14.6978895922971,-20.6320918381904,-0.833280213470648,0.452577894532302,-0.31641011410106,0.171851222354301,0.0305264281572428,0.939798597125167,38.7972570044314,-7.79488396613678,-0.0234647394589113,0.0174279409552232,0.00324149108589951,0.00174080076835344,0.0513728242845953,0.447037037037037,0.047721952097965,0.0159073173659884,-0.00167577030715959,0.00131514575506514,42.5854345779211,57.2261363336758,2.99876280597233,7.93161520537457,0.264744920372565,0.53582573442963,-0.180538556308807,-0.450007698257894,-9.03262725824024
0.0776287810415962,-0.114150295713733,0.955557125860725,2.15574547341146,5.74613521054405,-13.6538093985524,-19.4088413797296,-0.829676384986555,0.443374897987445,-0.315041681533697,0.168356694175476,0.0227501110689447,-0.381203031000266,44.9207808787738,-8.75257305375563,-0.0234681323384401,0.0163395861250666,0.00324149108589951,0.00174080076835344,0.0513728242845953,0.447037037037037,0.047721952097965,0.0159073173659884,-0.00167601261484769,0.00123301641812496,42.0614348147466,56.8428703533401,2.64098121454641,3.95302783676769,0.330219497046067,0.600487189243497,-0.168901035830862,0.308962569876457,-8.33795474406298
0.0818076578697549,-0.126020297274928,0.968721913936808,2.16459203446316,5.7204446426423,-12.8115181570111,-18.5395525574289,-0.829874110370235,0.434671635074333,-0.315116761093009,0.165051923023021,0.0261174900095835,-1.78444987718941,52.5642309893852,-10.8241392294733,-0.0228612499393843,0.0165024427155228,0.00324149108589951,0.00168797646917582,0.0287687815993735,0.250340740740742,0.0481181343417972,0.0160393781139324,-0.00163267117881528,0.00124530588790071,43.2090740393217,58.5374142974994,2.56944422649261,6.38591906044095,0.342453764953007,0.602268174283272,-0.171345203852902,-1.10572668187817,-7.72157565936621
0.0552282433596971,-0.1062197404333,1.05179473917191,2.13691616759131,5.47287240745934,-11.4018507050801,-16.8810089485694,-0.828231370129444,0.428777912924054,-0.314492985778746,0.162813980410316,0.0131818076504112,-4.13870970814115,58.2541197270868,-12.7886828322033,-0.0234321162196341,0.0158968232146517,0.00324149108589951,0.00162074554294976,0,0,0.0486223662884927,0.0162074554294976,-0.00167344046856071,0.00119960468212995,41.3418793279792,56.4668761876197,1.99937025200044,-0.198099490197772,0.416643356707466,0.663075858796771,-0.153232490839187,0.917518478556592,-6.49036596439845
0.470478820768669,-0.159564935496605,1.56056274604154,2.15669454748385,5.58229111365668,-10.664179045146,-16.2519982283939,-0.820731800957381,0.430764250612101,-0.311645276809925,0.163568225290199,0.0451883574064501,-6.77594976839556,52.3320156976626,-6.52942126578287,-0.0224735822191561,0.0167725926831739,0.00324149108589951,0.00170178282009724,0,0,0.0480821177741761,0.0158833063209076,-0.00160498529482154,0.00126569192111601,46.1121383418309,62.4393756214129,2.77303581162871,19.1490474678051,0.269516180741924,0.857765057606247,-0.207202978004052,-2.81887488779456,-7.50159359440079
1.0937041035789,-0.144748463555669,1.65413254334388,2.04623315038122,5.10135144296932,-9.15873964782082,-14.2662381698945,-0.760458283102359,0.392530102806558,-0.288758437120851,0.149050094565216,0.0756852674395054,-5.98086225532943,31.6893139448049,-2.33375103863928,-0.0203531382347658,0.0149822387617394,0.00324149108589951,0.0026544210336755,0,0,0.0417311963503211,0.0120727534665946,-0.00145355053999468,0.00113058839018895,48.6150290097615,65.3418107981864,3.41022256257973,38.5641323621044,0.106997998438027,1.41871602210393,-0.201128966720645,-4.88676504031511,-9.86871014627944
1.59646114398861,-0.304959236964457,1.81682191202973,1.8352083365694,5.51429799600635,-10.1706761537732,-15.6929114727492,-0.622789252367814,0.359839454032709,-0.236483256432868,0.136636921011641,0.241547371417976,-2.12926987447921,0.312032129781421,-12.3514758584014,-0.00508158319010376,0.0144467347425364,0.00324149108589951,0.00405186385737439,0,0,0.0324149108589952,0.00648298217179903,-0.000362909046497135,0.00109017823275931,68.1490638544246,89.2566161439901,7.1207142219673,136.311217320706,-0.634118315598079,1.48834475379063,-0.26197409267636,-31.3694339867736,-15.3050746448983
