accel_x,accel_y,accel_z,angle_ankle,angle_knee,angle_shank,angle_thigh,current_ankle,current_knee,current_qaxis_ankle,current_qaxis_knee,ground_reaction_force_vertical,gyro_x,gyro_y,gyro_z,impedance_current_desired_ankle,impedance_current_desired_knee,impedance_damping_ankle,impedance_damping_knee,impedance_equilibrium_angle_ankle,impedance_equilibrium_angle_knee,impedance_stiffness_ankle,impedance_stiffness_knee,impedance_torque_desired_ankle,impedance_torque_desired_knee,loadcell_force_sagittal,loadcell_force_x,loadcell_force_y,loadcell_force_z,loadcell_moment_x,loadcell_moment_y,loadcell_moment_z,velocity_ankle,velocity_knee
-0.0989037187030469,-0.150718240326273,0.0762642779868446,5.05521368728282,30.4989160436005,2.09126249445026,-28.4115190289608,-0.525455101188953,-0.675105115091275,-0.199523888644497,-0.256348444428489,0.132516859920537,-0.884579933615448,13.0465323069592,3.66700054922729,-0.0163389510158955,-0.0163321810777657,0.000810372771474879,0.000810372771474879,8.00000000000001,57.9709921567431,0.0405186385737439,0.108591447460589,-0.0011668712116117,-0.00123245761909363,10.416449893133,9.41728745779112,5.31379725285737,80.6432281381881,-0.731435833933837,-0.421082483068101,0.226650628419748,3.56274030304496,7.01357129094967
-0.189685661249836,-0.288220672234273,0.723042050519082,10.4663759731082,63.2961817745015,4.71242100643561,-58.5920576532203,-1.1482912610488,-0.859397517978277,-0.436024956618628,-0.326327281418465,0.261781218345866,1.35090656938517,29.9650524887633,-3.4917655766777,-0.0279154515690343,0.00691745439016705,0.000810372771474879,0.000810372771474879,7.56159455262785,55.0727655957812,0.0405186385737439,0.108513752698872,-0.00199362472923489,0.000522004337773384,11.8228708615885,5.56209918995143,11.1579651286927,159.962189471712,-1.76670756239066,-2.19241446562206,0.408261063924579,3.30886614485528,29.4258692367573
-0.179181638735689,-0.233661262196427,1.1777994361858,9.28969552546547,56.3047656294472,4.86503095647054,-51.4467918812616,-1.07235179895258,0.294235972713002,-0.40718950189619,0.111726207095444,0.218360328385723,6.86194186902899,30.8898102970266,-9.88909673047343,-0.0246480777964612,0.0548427157572046,0.000810372771474879,0.000810372771474879,7.23564680193364,52.921664752319,0.0405186385737439,0.108400374162532,-0.00176028022694208,0.00413853621662147,9.60963166745029,3.84869471040087,9.74137672311731,133.464305439064,-1.81601015617267,-1.80610279069747,0.10541230223568,5.1952294508383,25.4179350034209
-0.229875313792063,-0.2951361479219,0.911306393565291,10.1607518450536,60.6693201253331,5.78023791059444,-54.8963048969342,-1.17697054384719,1.60909647454293,-0.446914948959595,0.611000226429445,0.253882352385056,13.8286670865685,29.7634607542154,-23.0150268476346,-0.0327043140937325,0.146499246540834,0.000810372771474879,0.000810372771474879,7.18509250751273,52.5887463576096,0.0405186385737439,0.108233953037142,-0.00233562868107979,0.0110551133208124,13.0650220545335,8.69956732355014,9.77716405867467,155.777015447959,-2.0126606939819,-1.09232102032876,-0.349590852895327,11.1029379903094,5.38700328009786
-0.400097231344837,-0.124625725265587,0.913229566880403,10.0349214214639,57.7455113336974,6.11071319911155,-51.6425784316569,-1.28334892311213,4.1817074300836,-0.487308557948478,1.5878626465629,0.281091401202399,18.9104506155048,20.1358335200561,-34.4498645299899,-0.0345027720037267,0.155501501700316,0.000810372771474879,0.000810372771474879,7.01175246346361,51.4447116861192,0.0405186385737439,0.108239316799556,-0.00246406830724832,0.0117344407117775,6.83823743108698,2.10504529563299,7.56568282213757,171.842489517393,-2.02076348289007,-1.02488612272984,-1.15273659101575,14.9686598192848,-37.6490405510722
-0.478669510120524,-0.011366916483476,0.915618706177742,10.6353441924055,58.3658866035082,6.55265573418504,-51.8220404902633,-1.51961111329321,6.04734186057556,-0.577021172438149,2.29627452708048,0.346010241398322,19.1130158669618,13.4027802918867,-33.1704196962045,-0.0400233313150639,0.13917152712229,0.000810372771474879,0.000810372771474879,6.72989934029855,49.5818337784713,0.0405186385737439,0.108402057459478,-0.00285832750578116,0.0105021495993741,-8.49095708074757,-16.6927975555073,4.68477089438626,209.833844955782,-2.09657800894653,-2.4062982063595,-2.28169647401165,18.5272295263561,-56.0341895818291
-0.297601435249513,0.00562675345287784,0.971242402488618,10.8720408042276,56.2406374705961,6.69691244411973,-49.5507156599935,-1.76161501299752,6.44728937718529,-0.66891400786192,2.44814113487841,0.406413401645251,16.6411701754695,7.49144813223247,-30.3248649647872,-0.0443609257362192,0.154483836241824,0.000810372771474879,0.000810372771474879,6.2372607125687,46.3195416536097,0.0405186385737439,0.108725771555651,-0.00316810345484727,0.0116576457300151,-26.6141180719423,-38.0384471906988,0.400400462759178,244.557652827033,-2.02985261587672,-3.89675654968504,-3.6334512630353,21.1949385690124,-57.3460732688615
-0.262133607844125,0.00326592837094782,0.940850584441893,11.4674047768055,55.6352723517724,6.84757064969549,-48.7948185897713,-2.02476852633102,6.59382633679852,-0.768837697197042,2.50378361307686,0.460323771502601,14.6003969072201,3.72011359172564,-31.3031714133228,-0.0526979870412808,0.178495298706536,0.000810372771474879,0.000810372771474879,5.69048227675164,42.704492175627,0.0405186385737439,0.109139879677273,-0.00376350745702917,0.0134695966090378,-34.9278179885382,-46.3161161735261,-3.0792777299636,276.430825267773,-1.8998395623716,-4.34782356535745,-4.84961071155353,21.9609829852178,-64.9901450543268
-0.288464042681456,0.0961261124665446,0.96086201492633,11.7832805869505,53.822734886353,6.83685376446244,-46.9922595617831,-2.2792242175209,7.41671054966478,-0.8654586813288,2.81624619586222,0.501297136450593,11.2171891539104,-1.22847808524676,-30.1598596692106,-0.0602445709617583,0.232738058478086,0.000810372771474879,0.000810372771474879,5.22587517019372,39.6349868478064,0.0405186385737439,0.109608476551455,-0.00430245830609225,0.0175628589995781,-39.5497768996958,-49.3652335358787,-6.56659734450118,300.854852912073,-1.63327890796804,-4.53148303423019,-5.96831627867966,17.7782361006066,-79.3171081509273
-0.37012503478412,0.150195354368342,0.935448002635061,12.1006375480543,52.2063153805061,6.7306783038649,-45.4840020645682,-2.54000578750074,8.64135092458546,-0.964481705011434,3.28126215867683,0.545675906656036,5.78001555977792,-8.3293521152664,-23.8720041026256,-0.0666806581040048,0.241587268764708,0.000810372771474879,0.000810372771474879,4.76092551275414,36.5621327966003,0.0405186385737439,0.110202869073764,-0.00476210132689606,0.018230637331742,-46.7321174958964,-55.5936522872192,-10.4955420738904,327.062054181363,-1.25083694390784,-5.25751549491748,-7.02300611299557,13.5250482822432,-103.74815492506
-0.33823914074998,0.100923858140505,0.968686223166574,12.2377013385748,49.6825584985345,6.45806257815465,-43.2314724824222,-2.77005687641628,10.0889832117176,-1.05183586285189,3.83095179457985,0.601897885881513,0.236161314404133,-15.316661382995,-13.4713386476393,-0.0726636337035335,0.253204445823674,0.000810372771474879,0.000810372771474879,4.28064511723446,33.3806384730438,0.0405186385737439,0.110957251993377,-0.00518938469288898,0.0191072917302273,-59.4295549733108,-70.658167127372,-13.3879155216815,359.914406990839,-1.05124908813171,-7.11740639067575,-7.75832839723053,7.82172624413328,-125.338864444478
-0.256486720680303,-0.0020006042248385,0.983974324723692,12.2586002695716,46.8835442272093,6.05954429625299,-40.8313485167275,-2.97139723284874,11.4664043464589,-1.12828808639216,4.35398110856468,0.665671821562009,-3.03396570709712,-20.8538462917549,-8.46377708994818,-0.0758035058907853,0.267515579371935,0.000810372771474879,0.000810372771474879,3.7446981897453,29.8254352922867,0.0405186385737439,0.111855691363198,-0.00541362347418406,0.0201872372375321,-73.942266352562,-89.6473475788667,-14.9228083295303,397.330345569649,-1.05027688867114,-9.66977941829752,-8.13227425212613,-0.336413277060722,-138.198596933802
-0.207700348065607,-0.0685872954417184,0.996585373494038,12.1219186984241,44.0919974541042,5.55922101458118,-38.5389195904928,-3.09792952886762,12.3856317122811,-1.17633446691768,4.70302676091877,0.730070615957021,-3.35416572585454,-24.9419156908885,-6.18902881302726,-0.0778847637163201,0.25855666243498,0.000810372771474879,0.000810372771474879,3.17078139816855,26.0242407297093,0.0405186385737439,0.112865251155215,-0.00556225968945856,0.0195111802317223,-88.3394915714299,-109.189051923968,-15.7418551494923,435.384893378903,-1.12515269423436,-12.4907770176401,-8.26585609546887,-8.69785903870042,-140.650503989773
-0.131350673972283,-0.0366681738095963,0.992882218419851,11.7919719361026,41.3322951906399,4.99281746534598,-36.3474557979076,-3.14330102791932,12.9089650276228,-1.19356276654584,4.90174497280393,0.785987752439497,-4.09259138115861,-27.1179511509116,-5.49027839164109,-0.0789270607417259,0.261159325219377,0.000810372771474879,0.000810372771474879,2.60112115047618,22.2546886393734,0.0405186385737439,0.113900003701462,-0.00563669692791477,0.0197075821429728,-99.3413321794558,-123.759175047581,-16.7306842248157,468.873633848465,-0.989585041764917,-14.6360731676669,-8.33108121152181,-19.3988650123358,-140.629242494602
-0.20619885262614,-0.0104415134940259,0.965741981078994,11.2365815341103,38.2835643381615,4.35434517815768,-33.9373297078609,-3.17593963516094,13.7984661610421,-1.20595617907919,5.2395030889435,0.824555982361281,-4.23189355364709,-30.7172239636075,-1.85409615792207,-0.0785519459429183,0.23247675498719,0.000810372771474879,0.000810372771474879,2.08839875617476,18.8636561392292,0.0405186385737439,0.11496410328499,-0.00560990753003039,0.0175431405384174,-105.923860930453,-130.688140797057,-19.1108199097107,492.464016625003,-0.493167575041964,-15.7191336074906,-8.48608440119732,-27.6810792772741,-144.395764496467
-0.116014969339573,-0.11496536655448,0.981960950781348,10.5316574051247,35.3700431517896,3.66011081410764,-31.7181469122083,-3.10768987482091,14.2193997469546,-1.18004062977481,5.39933845019948,0.853296356079452,-2.87013386340345,-32.1998549189788,-1.87670898059972,-0.0769183597855075,0.274535239961566,0.000810372771474879,0.000810372771474879,1.65215488690459,15.9778671377845,0.0405186385737439,0.11605314258457,-0.00549324247259093,0.0207169542505843,-108.686121163513,-133.052935709354,-20.6524508818114,510.583839223556,-0.153615692543748,-16.1680720355843,-8.44649930266767,-30.3156780589112,-146.962502927493
-0.240459616228942,-0.130296364436271,0.98435510068789,9.973787829959,32.5179562597505,3.01187444338479,-29.5138484722894,-3.05475111904045,15.031204929632,-1.15993891910645,5.7075941441742,0.886111005679078,-1.9305109189284,-33.3051373688634,-2.83987344697595,-0.0756515111398125,0.218682336452671,0.000888168557536465,0.000940032414910856,1.28334734770411,13.5291976758254,0.0405186385737439,0.117101642939474,-0.00540276853624748,0.0165021873342567,-109.867756288373,-133.82987662322,-21.5465943872997,531.303746055228,0.0408557544354762,-16.294664199846,-8.33951656100935,-30.5713109746981,-149.364842911968
-0.362227318080458,-0.103821551240417,0.983060484758572,9.36798713764899,29.5234720747847,2.31205288544462,-27.2190715722695,-3.07557557133363,15.926844060069,-1.16784630394489,6.04768295808545,0.92888526120593,0.593279297125948,-40.6002162383829,-1.26294410722445,-0.0751715306851991,0.226901097795958,0.00093192868719611,0.0010129659643436,0.996976943807057,11.6142245172612,0.0405186385737439,0.118140972816977,-0.00536848999694103,0.0171223907834357,-116.659307152303,-140.261934583657,-24.7192397681785,557.980851297709,0.538495331367943,-17.1736016437622,-8.43772689220853,-30.912562553951,-163.890669346395
-0.307105512481599,-0.0645709502075636,0.979676238629713,8.78249208358125,26.370989796631,1.45172678860018,-24.9261676087093,-3.06530710263651,16.2271389259186,-1.16394719857844,6.16170982591623,0.966901298542512,1.25321566980361,-49.0766056240913,0.83243112296631,-0.071696801819843,0.266644422100706,0.00093192868719611,0.0010129659643436,0.707784072664406,9.66941268136999,0.0407711947214949,0.119300899108924,-0.00512033691311112,0.0201214980437745,-123.483589114273,-144.354513658369,-30.277652797542,582.301601716896,1.49561139230777,-18.3271541282454,-8.54044517447526,-38.068045426589,-174.558013062961
-0.205763232005657,-0.0852143649971277,0.969781188058761,7.95782728414652,23.0296011819065,0.416925418515905,-22.6196636820846,-2.89921249788893,15.512242193574,-1.10087836292127,5.89025185416206,0.985718472188294,1.75964857292953,-57.2870394134659,2.73492482512155,-0.0640118308197059,0.170238058791717,0.00093192868719611,0.0010129659643436,0.485236487211548,8.10080365432151,0.0410734210541805,0.120510373439222,-0.00457150293879987,0.0128464894932615,-121.994791570282,-136.22340717582,-36.3032816017514,595.760778325446,2.71130588838289,-18.3511501571359,-8.43308416195608,-48.3330465662024,-177.771358139578
-0.139896425166617,-0.0450895137635523,0.942646395154919,6.7639181172443,19.3381017042777,-0.764262412063684,-20.10896863439,-2.51895039716544,13.7433099789337,-0.956486629224518,5.21855938526235,0.979028970019558,2.10365378744663,-63.102803570169,2.59766841736735,-0.0536510352675686,0.19179515365365,0.00093192868719611,0.0010129659643436,0.353106840331454,7.08446926087739,0.0411538712086255,0.1217522848199,-0.0038315708558025,0.0144732290990502,-109.590674876269,-114.022459300929,-40.9621594187101,594.098345117473,3.9380392391696,-16.510731464101,-8.04395716013185,-57.4218625347981,-180.692880103521
-0.139007860698724,-0.0296894766755566,0.927170714545433,5.68124630410904,15.8814200418138,-2.03669072032759,-17.925144280133,-2.06813855929975,11.7766914445644,-0.785306007446541,4.4718021902711,0.946658300669501,2.06650281469364,-68.0112206254694,4.33537677750713,-0.0438333591888834,0.0933835536417123,0.00093192868719611,0.0010129659643436,0.25546407339694,6.28650862053093,0.0412450053145239,0.123081097202904,-0.00313042648184596,0.00704690155195806,-90.9046594757011,-83.8024138773152,-44.7561884361291,576.58544434447,5.06251510093262,-13.6718851081501,-7.43239297390443,-60.3464513623754,-182.43128331127
0.134584897311579,-0.0266468750451843,0.913748942491354,4.62368549454537,12.5496418309238,-3.36253727570117,-15.9188250360427,-1.67262209540711,9.56271976088374,-0.635121942775328,3.63112096236552,0.904528283034946,0.89269470978013,-66.8661130251505,5.91753526040108,-0.0351084049190123,0.0589401759476208,0.000944084278768233,0.00103322528363047,0.203028227141384,5.84098228889811,0.0415010711897901,0.124348341874641,-0.00250732050948356,0.00444773839889987,-68.0944257791337,-48.9464634150678,-47.3535970437912,552.435230111448,5.99788076018705,-10.3622040977308,-6.67566424705902,-61.1382544885907,-178.415072803194
0.382122067847943,-0.0305053770211925,0.920418409387052,3.33494095033629,9.25233284507107,-4.51316494345031,-13.7729142364153,-1.27860769332807,7.0625644143419,-0.485508235520678,2.68177112100205,0.873822646525597,0.27055844734716,-54.972456160187,3.90471454283568,-0.024560432458929,0.0417071511413968,0.00105105348460292,0.00121150729335494,0.125440897155453,5.46991861892881,0.0421834946156594,0.12550414245816,-0.00175402090092422,0.0031473013892114,-39.4696103597701,-7.54460453166934,-48.2738537406991,533.665287683178,6.79991517930308,-6.12822582932235,-5.86669887907939,-56.0434460229893,-147.505379130363
0.263420491658653,-0.0342207769770128,0.944645039783881,2.31460785157742,6.80939980338912,-5.44561024096399,-12.2619476241989,-0.936224098555111,4.53604552275954,-0.355499589524838,1.7224106107669,0.867140592081329,-0.197106518276999,-45.4284514932292,2.95550369647576,-0.0167366785839175,0.0206208577907619,0.00129173419773096,0.00161264181523501,0.0750260054005339,5.28737155486657,0.0427900298354291,0.126539967361518,-0.00119527553504334,0.00155608936586365,-15.5408414940015,27.3847303377709,-49.3627991492784,528.721354359772,7.54789643019936,-2.33879187015848,-5.32522667953331,-49.5197603055558,-112.657190152136
0.5884546557284,-0.0670137741610321,0.904901393952525,1.48418938299334,5.04065950613503,-6.12315436092968,-11.1712235812263,-0.662252015803719,2.25463807491205,-0.251467912590118,0.85612292120584,0.880641293582176,0.0693506239924296,-28.9186157988236,5.3345267656085,-0.010642000395732,-0.00598687991596237,0.00160048622366289,0.00212722852512156,0.0559330001606983,5.19977027037959,0.0431858079137314,0.127345763847048,-0.0007600147575973,-0.00045178140824507,6.60597241287542,59.0749567367615,-49.7327009578105,535.381683893567,8.17103216489914,1.37952654241804,-4.9517124143933,-40.8116165092444,-83.1829875885753
0.490782536968655,-0.0576049141753045,0.91666438275581,1.10091470809763,3.81165029300395,-6.43947348493723,-10.2590557343712,-0.4870911151134,0.594468243192946,-0.18495645620664,0.225729306441479,0.91471013083915,0.014227891917421,-14.0545054784606,2.30684514793326,-0.0157079238768931,-0.0143100370375603,0.00187277147487844,0.00258103727714748,0.0435947656899876,5.12742559579088,0.0436640393873763,0.127990321457841,-0.00112180544199582,-0.00107986276251022,26.24622910532,87.3697580644796,-50.2519849025847,554.205943533924,8.73171323191267,4.84949781708076,-4.75165488150903,-20.5289511243082,-58.2815103582076
0.02894084511939,-0.0454330760847186,0.961401712329066,0.974377750361057,2.93519331506181,-6.5967013864313,-9.53854562144084,-0.546604397258234,-0.62574698098999,-0.207554621973165,-0.237606354324422,0.959320049126941,0.292680439331452,-9.10199617495597,0.502626545061748,-0.0211968320503302,-0.0361910522345724,0.00222649918962723,0.00317058346839546,0.0253394822267293,5.03018092120217,0.0442069102759284,0.12845098590861,-0.00151380422603849,-0.00273104601627502,36.1580049421351,104.163018779128,-53.027877801607,580.342759462426,9.34185441713439,6.79082162340016,-4.72287041128295,-7.7453474403029,-42.8962437817402
0.268872936844639,-0.0165228110715583,0.915251383158705,0.896918195426815,2.21147491910207,-6.6676140142377,-8.887055133778,-0.747264676496992,-1.48661377152134,-0.283748609089508,-0.564491542541403,0.999099054987533,-0.305906675529037,-3.83830399100782,5.85809446045473,-0.0208110676712858,-0.0589952360502024,0.00249270664505673,0.00361426256077796,0.00280288808664254,4.91523624661345,0.0447609858101791,0.128867422233075,-0.00148625427207056,-0.00445189333954201,40.2803921244746,113.443027126257,-56.4779502861185,604.140893433175,9.93411058255627,7.64884150740662,-4.71094652456171,-2.76741236133384,-43.2545424981293
0.532695709048317,-0.0436058612136005,0.951004059334801,0.942753110481628,1.50503825997004,-6.58550155030363,-8.09794002579966,-0.881227937140916,-2.36513406624895,-0.334616648316252,-0.898080054786391,1.0363540523769,-0.442277041610575,5.65449193910318,1.32070428121815,-0.0250784912171794,-0.0732685632889786,0.00258630470016208,0.00377025931928687,0,4.76984157202474,0.0455104213043136,0.129153110064469,-0.00179101886060582,-0.00552898591042924,48.9925766129335,127.267779851241,-57.9818135496278,625.791606813768,10.4504569733962,9.1938107934428,-4.53268739388145,0.595369545792487,-27.7341049099427
0.162128643302385,-0.0570544559559284,0.941003034768684,1.01781249062632,1.15890845654267,-6.38512815931216,-7.55084453704888,-1.02372797877386,-3.14743190705911,-0.388726242788307,-1.19513132885997,1.07448389170035,-0.697172339142597,12.5989081329898,3.16185915107837,-0.0249879282729845,-0.0887765552795583,0.00276742301458671,0.00407212317666126,0,4.62204689743602,0.0478279064218413,0.12933053565491,-0.00178455116923953,-0.00669924864475889,54.3792198733271,136.2594802724,-59.3556500162724,648.334556695746,10.724454753419,10.2749318556772,-4.48411132442309,4.94118059186013,-7.73730422747731
0.318523961980274,-0.0273678132735021,0.961481048733536,1.18124621093478,1.26716340465074,-5.98375593691949,-7.25876448045616,-1.19811741869463,-3.61264766977801,-0.454944762910765,-1.3717813562864,1.10474544194559,-0.770571989091983,21.1910312199842,0.68054189244113,-0.0250842070106613,-0.0794288377051277,0.0029631280388979,0.0043982982171799,0,4.46240222284731,0.0513576661481818,0.129420757783329,-0.00179142706275167,-0.00599385199927187,56.6081844598823,140.318386942303,-60.26232473782,666.406725139332,10.9358305765743,11.1828581082131,-4.51724721907743,13.1818651277197,14.4097608234538
0.0766476065309378,-0.0297873614070415,0.981583681067891,1.52065055321915,1.57417099158913,-5.46896419181364,-7.04942167390773,-1.37882167464512,-3.6539038287703,-0.523561121873254,-1.38744699404318,1.12699144139086,-1.43475836039289,25.1987489332561,-0.378527520519947,-0.0337125285079354,-0.0645655682817146,0.00316369529983792,0.00473257698541329,0,4.2882575482586,0.0546182581113079,0.129420757783329,-0.00240763185765586,-0.00487224126287946,55.9484773166531,140.048710821734,-60.9256154064,679.904688720056,11.0988167818524,11.7497581733939,-4.63330815281901,20.3473958225643,17.6635985496862
0.0696876011294131,-0.0418210023016543,0.982343411936648,1.97826531654351,1.78840502581755,-4.94605028115114,-6.74150956187491,-1.56365852150102,-3.45384382923638,-0.593746693135252,-1.31148094294024,1.13619326624745,-1.94640408554248,24.3749717404605,1.53607933828763,-0.0446136923913135,-0.0550812467609523,0.00324149108589951,0.00486223662884927,0,4.10596287366988,0.0579164950268432,0.129420757783329,-0.00318615517265938,-0.00415653622234998,50.6259126869744,133.30331528876,-61.7074629593246,685.900876293602,11.1077642449263,11.3374790173722,-4.77981189469259,25.22001395944,7.43727715821114
-0.120675746461726,-0.0393490486602118,0.994152804294478,2.41053499761171,1.81859781244288,-4.42630395464804,-6.25239883777054,-1.80265318535729,-3.05922024532864,-0.684496872532102,-1.16163591939028,1.13433492674016,-2.29155337188963,21.3371374062716,0.175793400766167,-0.0517663764106263,-0.0530673090598675,0.00324149108589951,0.00486223662884927,0,3.92126819908117,0.0612723466344737,0.129420757783329,-0.00369697505698191,-0.00400456063181107,45.7095150463301,126.57283624652,-61.9298201385031,685.102498071385,11.0503017940734,10.558349940342,-4.77301586921623,22.1853481459201,-2.6976094263212
-0.00889599900103376,-0.0317016324058839,0.989227343911062,2.68808902512494,1.72704803676219,-4.01543042903071,-5.7495239768539,-2.089511260335,-2.70494519117483,-0.793421571291558,-1.02711189194328,1.12574622609739,-2.39728137316632,16.904453429664,2.74639067171019,-0.0542193177238876,-0.0553389953228656,0.00324149108589951,0.00486223662884927,0,3.73657352449246,0.064164251236284,0.129420757783329,-0.00387215561780451,-0.00417598642177086,41.4218842160302,120.830863110806,-62.2514726734476,680.157357134507,11.0523335698889,9.78747218534166,-4.69843883608524,15.7903156665243,-5.34825807176351
0.0440079033374671,-0.046591361716054,0.991860829702722,2.86907521534275,1.6066078664846,-3.68124114086186,-5.29611607744932,-2.36704253649107,-2.59943582157877,-0.898804732124586,-0.987048260126598,1.11564160606486,-2.61766018707137,14.7429422414256,1.40208109632049,-0.0529406569785201,-0.0545727864823687,0.00324149108589951,0.00486223662884927,0,3.55187884990374,0.0665224811360246,0.127637937686084,-0.00378083810227149,-0.00411816683730809,40.7669790719839,119.53746554019,-61.8842508396107,674.045499576159,11.0539013505807,9.76723493750477,-4.58812724586565,7.77111555166994,-6.53467268124804
0.0338905706486781,-0.0475792023392526,0.987882881038917,2.95609928185076,1.48009104484016,-3.38489054421098,-4.87196162310712,-2.41087503370889,-2.59320073755629,-0.91544864760682,-0.984680696832654,1.10491172457677,-2.66905124594245,14.5405520949944,1.23983631004496,-0.0531201848611495,-0.0559992198559431,0.00324149108589951,0.00486223662884927,0,3.36718417531503,0.0684749663393701,0.125368893925954,-0.00379365936097519,-0.00422580822770293,42.7536861977949,121.0276146254,-60.5647717630353,667.417697607026,10.9788687937401,10.2953987995327,-4.51209293069669,6.15482537872387,-6.29809154655136
0.0438314757743655,-0.0527921754179396,0.991505446820935,3.06584184000496,1.38782639435194,-3.04519361108989,-4.43875457352187,-2.41959945933349,-2.59699116409456,-0.918761454586659,-0.98611998373048,1.09748526135929,-2.7630500952822,14.568878112633,0.630669211789149,-0.056450834386596,-0.0525807303503734,0.00324149108589951,0.00486223662884927,0,3.18248950072631,0.0702001737230291,0.125368893925954,-0.00403152279807288,-0.00396784247182072,45.1478175793524,122.824723599818,-58.9760676675514,662.820110288348,10.8650211142456,10.9862663040847,-4.47115563463601,8.02835849748489,-5.02357535845761
0.05322623198369,-0.0487828777525444,0.987110047019058,3.25095646251654,1.28614155469352,-2.72489695174441,-4.01781347099547,-2.58077640896449,-2.50844651876577,-0.979962976234214,-0.952498134947065,1.09356360686585,-2.966146332802,14.7157260350913,1.12930645148457,-0.0610999762423135,-0.0481227393648433,0.00324149108589951,0.00474878444084279,0.420000000000002,5.51779482613761,0.0706851729852924,0.124461276421902,-0.00436354838434571,-0.00363143394623517,47.2076234493552,123.886145110142,-57.1244837806619,660.411344997852,10.7439924699415,11.5917813300894,-4.45098388047079,9.42602824445781,-5.1077374583657
0.0515276065461804,-0.0478294211415527,0.981527966808865,3.4158558238897,1.19479438500265,-2.44303341077394,-3.64411343215042,-2.79964975341381,-2.35823093550499,-1.06307276183976,-0.895458823235419,1.09240144597681,-3.19350911070192,15.0673597217217,2.24177839396604,-0.0657564497326429,-0.0439007634102225,0.00324149108589951,0.00465964343598055,0.750000000000001,7.31310015154889,0.0715021225202907,0.123748148383005,-0.00469609757053351,-0.00331283556625601,48.2807512209461,124.047773793673,-55.7684806154492,659.74709834247,10.6866953421159,12.0136304657057,-4.4618743949037,10.9696487076906,-5.26575725214147
0.0153969957616001,-0.0463617311705605,0.979725286094082,3.62836969381216,1.10995176909861,-2.14486798023915,-3.26131623014636,-3.04720705050681,-2.09672225676234,-1.15707431300285,-0.7961597044735,1.09308352765301,-3.73313468468846,17.2462841287572,1.97880117303709,-0.0703911263165017,-0.0411649669560795,0.00324149108589951,0.00465964343598055,0.750000000000001,7.12840547696017,0.0735627584953613,0.123748148383005,-0.00502709009726148,-0.00310638713367109,47.9741734338816,122.65658878174,-54.810862067906,660.285425534217,10.6408959061974,12.147081355845,-4.50470291757375,10.7357079384993,-4.11911847637146
0.0417055720011798,-0.046675584137469,0.990679460983983,3.83776466447825,1.05805365503532,-1.76957402319524,-2.83365123555047,-3.29798265060206,-1.8769180012059,-1.25229790640777,-0.712696436708095,1.0989685211345,-4.20037496906854,18.386209142136,1.41122469137029,-0.0746159180660927,-0.0377622297321436,0.00318638573743922,0.00465964343598055,0.511999999999998,6.09371080237145,0.0757564986989569,0.124023675125306,-0.00532881007076873,-0.00284961007508688,47.8469001402172,121.491955830701,-53.8262207348949,664.019529271228,10.6215356240949,12.391809449112,-4.56399031182858,10.746260969565,-3.20240610854419
0.0364292104355817,-0.0491877656497798,0.978641621647551,4.03767643844077,1.0155016503134,-1.39999665467779,-2.42127332567062,-3.57084290925662,-1.70032241937544,-1.35590740556406,-0.645640208450871,1.11043519257464,-4.33752528845635,18.9517093925459,0.912683933602656,-0.080530917407197,-0.0331786998283772,0.00316045380875203,0.00465964343598055,0.4,5.50901612778275,0.0780029864612077,0.124153334768742,-0.00575123880815353,-0.00250372814264059,48.7036655003143,121.610321191638,-52.7329369038106,671.131286856531,10.5974346733359,12.844727827422,-4.6227268900811,11.7992564312471,-2.97514508539107
0.0449146016351361,-0.0504777405546387,0.970806622980487,4.26185279913608,0.986235402509024,-1.02610543388817,-2.01937218207781,-3.85326659769378,-1.58093516052916,-1.46314829528955,-0.600306915300382,1.12303889756566,-4.75896943538316,20.7463189797762,0.345603917674612,-0.0813707957776281,-0.0428995777510171,0.00316045380875203,0.00465964343598055,0.4,5.32432145319403,0.0803560911556716,0.124153334768742,-0.00581122000833939,-0.00323728418166508,49.1062148702005,120.986713907727,-51.540038841482,678.979103976273,10.5433767461677,13.2022465891167,-4.68091595956163,13.1260347854719,-1.15778423303567
0.0590514830133752,-0.0509691032499165,0.976656639624145,4.58863542078597,1.12894523035906,-0.555218084672934,-1.68943210258751,-4.08303176470742,-1.80477371504971,-1.55039388391146,-0.685302072308943,1.13460749431479,-4.94314543422286,24.7683550864201,1.46722957658848,-0.0918762530597409,-0.0422151204226914,0.00316045380875203,0.00465964343598055,0.4,5.13962677860532,0.0828698468668249,0.124153334768742,-0.00656148333034752,-0.00318563372265885,50.3760082787092,121.344083117433,-50.1016489914631,686.295887682555,10.4638060799642,13.738323044769,-4.72676130815738,16.9739992526949,5.90691623445734
0.0374623150111304,-0.0611330863189016,0.992676347789057,4.96067685032001,1.48164703196515,0.0321015425217717,-1.45580787534686,-4.47286777075197,-1.6207714094275,-1.69842098591057,-0.615433389991033,1.14238612454649,-5.16032458066756,27.5711508032788,2.08619114118897,-0.101228894232167,-0.0355574523330945,0.00316045380875203,0.00465964343598055,0.4,4.9549321040166,0.0853837005141998,0.124153334768742,-0.00722941652422398,-0.00268323335596253,52.0962118298166,122.033979537767,-48.3588102197787,691.489343179812,10.3575299753677,14.3252688982432,-4.76075639011814,17.489421914051,10.0281716078351
0.0220261955978934,-0.0750177128847802,0.997285577281354,5.29646018915389,1.89579815011977,0.650027105818951,-1.25297850350406,-4.9678831992902,-1.23026325758979,-1.88638643341976,-0.467151063250392,1.14280751008957,-5.0987217981029,28.4674769817327,1.41120209496605,-0.108828328642376,-0.0315015322021654,0.00316045380875203,0.00465964343598055,0.4,4.77208742942789,0.0879063995830489,0.124153334768742,-0.00777214177195733,-0.00237716586601754,53.7591217133223,122.152793979844,-46.125914951598,692.369549039852,10.1849063617701,14.821260012315,-4.75848360056644,15.862529610998,11.4426862025095
-0.0148470700875458,-0.064840954042835,1.00398674052504,5.65744505932759,2.33251793302636,1.27749185287929,-1.063614026469,-5.41841275854291,-1.04697357749951,-2.05745986939554,-0.397552976492325,1.13064203535117,-4.89689510522956,28.6054309333186,1.7611060652217,-0.117533897893853,-0.0258455238011963,0.00316045380875203,0.00465964343598055,0.4,4.59174275483917,0.0905175813571774,0.124153334768742,-0.0083938633335409,-0.00195035265507893,54.777183768579,121.062263729213,-43.5956275350856,685.743299306831,9.90282481113345,15.2108294066654,-4.66411540272827,14.695755173929,11.4068329086246
-0.0300558979098402,-0.0476884097277861,1.00606812234896,5.96106769844453,2.7017295260244,1.88009268769152,-0.827325852331138,-5.89541577066657,-0.901608293295497,-2.23858570804226,-0.342355402593679,1.1020697434075,-5.34894937104134,27.3517252713878,3.07055385194542,-0.125981784041047,-0.0199157896313904,0.00316045380875203,0.00465964343598055,0.4,4.41769808025046,0.0933417279678991,0.124153334768742,-0.00899718206156352,-0.00150288357412891,55.239894596608,119.112041780085,-40.9910336575015,669.230037128604,9.54759127034522,15.387866846888,-4.45410028784703,13.3414232254599,9.32774911735008
-0.0478196096185821,-0.0331514691073569,1.00978497444409,6.19406136503646,3.01516070248815,2.4249646291994,-0.598377166448654,-6.40184028949297,-0.754602251178852,-2.43088337357549,-0.286534806103167,1.05219667279922,-6.40989104282276,25.1349332009913,4.36217759045618,-0.13299015869809,-0.0131048081448158,0.00316045380875203,0.00465964343598055,0.4,4.24615340566175,0.0958458125760892,0.124153334768742,-0.00949769587175468,-0.000988913885287879,55.2016779372354,115.813685784034,-37.7467241794441,639.77901163271,9.03174525351232,15.2753229728855,-4.09705853189894,9.96825565491019,7.70975456298888
-0.0673618876870702,-0.0540756954757051,1.0336465947608,6.33148992259814,3.28229000332232,2.89064814577064,-0.400285094912225,-6.78068551454086,-0.549249330578313,-2.57473709642435,-0.20855894637697,0.981473469016412,-7.55386000944786,21.1240758534287,5.94468924573537,-0.136451743838847,-0.00898725959089018,0.00316045380875203,0.00465964343598055,0.4,4.08185873107303,0.0977315463797999,0.124031778853021,-0.00974491027636134,-0.000678195796680464,55.1948566942662,111.321786481081,-33.26447157081,597.607183911921,8.24771478633937,14.8992500297603,-3.64349720781559,5.58210242283344,5.00990167646628
-0.0520208552604491,-0.0807416477186389,1.03500188750889,6.40776214606998,3.45112952683429,3.28537916179782,-0.17382082416645,-7.0116053631592,-0.378404866714856,-2.66242113652079,-0.143686511593692,0.887551083053139,-8.45413893919339,18.1857650049567,8.39897626112495,-0.13901881559408,-0.00767095543380194,0.00316045380875203,0.00465964343598055,0.4,3.93816405648432,0.0992704410330214,0.121884291008612,-0.00992824163750006,-0.000578864967581554,55.4090151175913,106.347121336103,-27.98694067907,541.279313859701,7.16454328314852,14.2382607572073,-3.1150466011631,1.51124313098774,3.06061164655563
-0.0452404587073392,-0.0833530805405975,1.0748648787152,6.35961570798009,3.56060809358708,3.54687346374026,-0.0220383080365565,-7.09944318661414,-0.296427661127147,-2.69577459348817,-0.112558427001765,0.775148416816089,-8.67227753251774,14.1470168832662,8.06404184538189,-0.136405699013496,-0.00443947482288017,0.00316045380875203,0.00465964343598055,0.4,3.81283009736916,0.100360026411124,0.119129023585598,-0.00974162191463646,-0.000335011260540196,55.5385375127883,100.829130494708,-22.2857775097561,473.522427218871,5.95056884235636,13.3279351015686,-2.48834606296284,-5.68954525059292,0.975520228161049
-0.0782204591916525,-0.0966321053407274,1.08251918199449,6.15798004254062,3.58893261557988,3.78546376983553,0.188414778812237,-7.00483387050739,-0.252984522466235,-2.65984989010457,-0.0960623573262887,0.651007638667092,-8.78119491413073,11.3805636684738,7.31971239007441,-0.128602785073317,-0.00249655889903099,0.00316045380875203,0.00465964343598055,0.4,3.7180420182377,0.101079074150531,0.114753010619633,-0.00918436486462013,-0.000188395109139194,54.3248021378031,93.3864891294892,-16.5596171729731,398.495933163688,4.7172296580864,11.8936070777165,-1.86730447632966,-13.9729382913194,-0.636223415569873
-0.0265814428355057,-0.119918129682629,1.12763294814608,5.86267145431447,3.57190337625528,3.88343547963031,0.305038674003734,-6.68821578994284,-0.191352516977521,-2.53962483090074,-0.0726596776829806,0.524768186699913,-8.50184066228464,7.70213014601418,8.75300695792472,-0.118503323410048,-0.000165854467561834,0.00316045380875203,0.00465964343598055,0.4,3.6456216200904,0.101413593122186,0.110580232427715,-0.00846309634155647,-1.25156953155251e-05,52.9299818020958,85.9614058696688,-11.1071077489838,321.954133430128,3.50089914506083,10.3570892231905,-1.37829174177113,-20.3453548414768,-1.67766130303434
-0.121811959237408,-0.144541322132676,1.06382305406411,5.43853118264817,3.54007895702162,4.07612012662315,0.528703006355549,-6.30759335576178,-0.110437654042835,-2.39509627270176,-0.0419349819566763,0.401268950331046,-8.42641289967697,15.7831321991301,7.61028228303446,-0.10539781095609,0.00104081661573487,0.00316045380875203,0.00465964343598055,0.4,3.606908,0.101660485885338,0.101486241017711,-0.00752714609719472,7.8542012364045e-05,49.0087844799542,75.80254941637,-6.49366172939869,246.987250703035,2.39926649596956,8.09179882952607,-0.983874072165411,-28.3381945192221,0.0508387302445464
-0.0464918358047388,-0.147281470844584,1.12925330574348,4.74757738306966,3.62366546323074,4.47358544017318,0.841832319767316,-5.67711853224964,0.0261367266318108,-2.15569467931165,0.00992454221534301,0.290941811959766,-8.29027067779448,15.6898754024092,8.18823341672271,-0.0858958484356786,0.0064413954516581,0.00316045380875203,0.00461709886547812,0.557499999999996,4.51237499999998,0.101193343017808,0.0912849114692006,-0.00613438357450526,0.000486080019820423,41.8560822848688,62.4015596755272,-3.20812044046143,179.913264001325,1.56760722970741,5.61974093718103,-0.716861065679441,-36.6198526667639,4.60625942626743
-0.034091840641125,-0.1642034457163,1.19205726246065,4.03599141068102,3.73802498665159,4.73086832192846,0.987915496955694,-4.82195086623159,0.143151040867859,-1.8309735418046,0.0543567895198561,0.194926718321367,-7.69772203376275,11.4670097543819,7.14455206788986,-0.0655360195714853,0.00612722879605456,0.00316045380875203,0.0045097244732577,0.954999999999997,6.84359799999998,0.0998100667455136,0.0836197102218887,-0.0046803552129626,0.000462372403151216,38.2021982146833,55.4481239856547,-1.42205715798439,121.549509681018,1.10147635693124,4.07356523526013,-0.503187974180199,-38.8695200396428,3.28239456306537
-0.0207224872582565,-0.166848369074882,1.20181476181242,3.3268277467541,3.79696814057624,4.96202181767595,1.1584272173602,-3.89675518322029,0.205080442921449,-1.47966162188257,0.077872395498753,0.1178931513131,-7.36643333834905,10.301833932663,5.44377459389174,-0.0495117315474573,0.0085703876157137,0.00316045380875203,0.00431118314424635,1.69,11.182133,0.0972908571739197,0.0736978899624557,-0.00353595614085439,0.000646737840174441,33.0509944304309,47.431672652373,-0.690508078940073,74.4959642404975,0.82800613822968,2.3407941165844,-0.370839421091453,-39.1978933608068,2.25299652795475
0.00807413168384966,-0.184721553835338,1.22733381651047,2.48857126548245,3.82895944075645,5.13432647314082,1.29756215115926,-2.82303269569903,0.274074100555929,-1.07195164713775,0.104070414762226,0.061609998290404,-6.65635723075795,7.52291227684101,2.25636753870073,-0.0240553958847511,0.000184098200599733,0.00316045380875203,0.00405186385737439,2.65,16.86204,0.09383038801688,0.0587176177716453,-0.001717952940463,1.38924023013348e-05,27.8121308368733,39.6152913979612,-0.282998769959949,39.9403061831991,0.626516211490615,0.834045140173941,-0.2942508154231,-38.1108363431416,1.8222446170124
0.0395530956686462,-0.166287155303893,1.20974015434253,1.92124193336393,3.88763402133898,5.28377088534115,1.38843839609557,-1.89595475822987,0.156703392489744,-0.719925004439207,0.0595028388964017,0.0248040358444529,-5.54831981215382,7.38563969913474,-0.344891859495648,-0.0100366285536308,-0.00909485547954159,0.00316045380875203,0.00367706645056726,4.0375,25.135886,0.0882721299382176,0.0457050243111832,-0.000716781200303386,-0.000686315188213058,24.3162577232531,33.9477090095918,0.440672448792203,17.3261831851425,0.467924964934313,-0.290002439468358,-0.220567861106399,-31.2031727213139,4.69065756905326
0.0123852887122646,-0.142847348961954,1.18804911601114,1.37816960390497,4.03406442323927,5.44385562796212,1.40107335206469,-1.04574458701914,-0.121448502609048,-0.397086308723383,-0.0461159810910178,0.00503852587901807,-4.57818052608116,8.46226078341765,1.97654876528615,0.00856826299932496,-0.0263328483337022,0.00316045380875203,0.00311588330632091,6.11500000000001,37.5594680000001,0.0803143822952283,0.0390275526742301,0.000611915625287285,-0.00198712709630012,21.5478853647096,29.4204381267357,1.05287359649735,5.1170381583451,0.371126258742619,-1.06917030111177,-0.182164326353409,-23.253623070691,11.2082673883375
-0.0115005136311119,-0.10170075770613,1.12197425868394,1.03910082331037,4.36431339317164,5.69581391281897,1.32300427633331,-0.186050607742979,-0.499103078585511,-0.0706464561054903,-0.189517595030468,-0.0048866254821943,-3.80568922524434,16.7658934150463,11.7300419490223,0.0258833728054013,-0.0522145429975254,0.00316045380875203,0.00264991896272285,7.84000000000002,47.8950160000001,0.0739422143152188,0.0324230145867099,0.00184850071198899,-0.00394020927384892,18.9305271102963,25.5310878853238,1.24072029692887,-1.08431650841343,0.310792864720042,-1.79504458837622,-0.204048137966894,-10.9100818638425,22.6756731115773
-0.115683705456039,-0.121159071449375,1.07994313658581,0.942232982841641,4.98157999973335,6.20570565947423,1.21670873282769,0.4780534491317,-1.01090445875961,0.181524706744395,-0.383856942683383,-0.0127037639049956,-3.83096503794665,33.4111255425292,17.6830311521917,0.0424400860714517,-0.087158747706735,0.00316045380875203,0.00217990275526743,9.57999999999999,58.3299999999999,0.0671234902055617,0.0275688816855754,0.00303092374822115,-0.00657716579128943,14.8541446062922,19.6252294286581,1.38170333101151,-6.11944620974863,0.231448426977924,-2.8623979516214,-0.272896537797286,0.0870439805867415,44.0632708206713
0.0846392509016137,-0.107917232336042,1.13259964890974,1.00917913478496,6.08824277063787,6.99448429538413,0.899700868616996,1.21919309554276,-2.01721134354938,0.462947541818116,-0.765968111399174,-0.0201603476412076,-3.84474763543813,47.0991481807143,19.5508051270878,0.0571652406928026,-0.124364686760479,0.00316045380875203,0.00142828200972448,12.3625,75.025,0.0567153207715455,0.0215559157212318,0.00408254321861856,-0.00938479710788966,12.0729519236753,15.1519853399669,1.92174700837299,-10.8128964716301,0.0793747040651647,-3.61928658098001,-0.300270353518745,12.5001997666485,74.3535235478501
0.198452633501639,-0.124233654897021,1.13471595883409,1.39846296863193,7.72920981499812,8.00398977863315,0.266936441288348,1.77435335915922,-2.72332528729369,0.673750966063165,-1.03409111479791,-0.0240090354129095,-2.24307780833003,60.2712478220222,17.0518888025141,0.0598137917987031,-0.143030738491134,0.00316045380875203,0.00103727714748785,13.81,83.71,0.0518055154811198,0.0184278768233388,0.00427169355237934,-0.0107933730699306,14.2573746512039,17.2340552577317,2.92891733783521,-12.6703202514115,-0.113334317485736,-3.32890575656995,-0.242695610702871,29.2707265552451,106.595699463727
0.238190625041588,-0.100462205915722,1.1077535258155,2.13944943905295,10.0777280299454,9.25415759253502,-0.830584218325616,2.09939812545555,-3.36399681506063,0.797175775544012,-1.27736456342298,-0.02378214134434,-1.25301288339407,76.9168373834789,13.7326205004731,0.0684840925944843,-0.185337501217624,0.00316045380875203,0.00089748784440843,14.3275,86.815,0.0498814876254863,0.0173095623987034,0.0048908963631821,-0.0139859222960982,19.3468985178912,23.3763184278807,3.98432784597698,-11.4323225528462,-0.238833908751988,-2.47018846567212,-0.190605611765954,45.2808293578968,141.98622381786
0.233722899701807,-0.0906963199924095,1.09005691946365,2.97897904394897,13.0042684567499,10.928131062037,-2.08236544043332,2.29430498319808,-4.14114456328361,0.871185094498716,-1.57246026318097,-0.0244173753361892,-0.225798168751417,102.460363575528,7.46734237482829,0.0738549343811066,-0.222390452269073,0.00316045380875203,0.000810372771474879,14.65,88.7500000000001,0.0486223662884927,0.016612641815235,0.00527446325537939,-0.0167820088454588,23.0245861457407,28.1255571983505,4.43612479698365,-10.6066753232132,-0.251410351274567,-2.0168776043099,-0.196215176302956,57.5562236139856,183.637642583662
0.241207490375299,-0.0945383433745449,1.16379620033777,4.15953404788495,16.9505077296155,13.100117011479,-3.85788618552141,2.33851775045736,-4.91744949946759,0.887973404729874,-1.86723593343495,-0.0284151979432869,1.26950445889195,125.294236858363,0.982726831459071,0.058722453295193,-0.208743703497534,0.00316045380875203,0.000810372771474879,14.65,88.7500000000001,0.0486223662884927,0.016612641815235,0.00419375394165216,-0.0157521990840278,25.9126401548343,31.928714338699,4.71729280516132,-11.6285064681621,-0.263492066635295,-1.67618886919567,-0.218211819891668,68.7626986055497,226.833906346778
0.0574053497473247,-0.100584873385871,1.13458875662925,5.67858821267013,21.7513248273826,15.6551114339017,-6.10357753845629,2.30383347764213,-4.56457452075994,0.874803219548987,-1.73324353751419,-0.0322165700537272,2.51156149418043,140.577930216868,-2.45674830561425,0.0397376830379086,-0.19853781597942,0.00316045380875203,0.000810372771474879,14.65,88.7500000000001,0.0486223662884927,0.016612641815235,0.00283792749656792,-0.0149820432933578,29.0269337354677,35.9846541465177,5.06562921628595,-12.1166279248343,-0.283224141057091,-1.15677462905484,-0.196626775366846,74.2416519094219,254.97370750194
-0.0570908505495808,-0.0834403389387717,1.13985990308202,6.96028496014564,26.8428452237094,18.4026920558947,-8.44663458376882,1.6842773141474,-3.47166725550793,0.639547619794741,-1.31824878915701,-0.0347906507470195,3.81406683854167,145.443946619511,-6.7513558972181,0.0279129157684069,-0.174611220902459,0.00316045380875203,0.000810372771474879,14.65,88.7500000000001,0.0486223662884927,0.016612641815235,0.00199344363114924,-0.013176496669722,30.6062560958521,37.8474697652311,5.43631269898713,-12.0099559145585,-0.32050227451329,-0.869141823132169,-0.140480786549344,65.6835925794198,269.897576702927
-0.220551409930241,-0.0771056704881102,1.15488201964721,8.10241377859275,32.0726879046453,21.1592391479634,-10.9208447606705,0.997410225080127,-2.39313922510599,0.378732961639301,-0.908714071250632,-0.0356991843803382,4.11174231029426,142.437196129314,-8.6876802541444,0.0247865632779081,-0.158563905946823,0.00316045380875203,0.000810372771474879,14.65,88.7500000000001,0.0486223662884927,0.016612641815235,0.00177017037970461,-0.011965535593005,31.0344474614764,38.2637826779259,5.62555382284938,-11.1579212176932,-0.346028739204087,-0.765072498063273,-0.0892617043663967,53.1291084908109,272.372879704275
-0.292080400245511,-0.0387773321924699,1.15742391681486,9.08638881160721,37.2666803709785,23.8012280923974,-13.4726015428506,0.527282871119253,-1.53544122098482,0.20021792275553,-0.583032123016313,-0.0342548015981269,3.30578783901968,132.186348503784,-6.5210822452468,0.0224360778067994,-0.139261371846373,0.00316045380875203,0.000810372771474879,14.65,88.7500000000001,0.0486223662884927,0.016612641815235,0.00160230685977116,-0.0105089294540796,30.5513421219721,37.7633410590691,5.44278131852431,-9.18540317164293,-0.340777343146743,-0.781777233956545,-0.0703077274451498,39.1907098750725,269.027329846287
-0.389477570143632,-0.0314935249462252,1.04619279772407,9.67127852326901,42.3075077072746,26.2288677419674,-16.085371819854,0.430504640659492,-1.16455103200782,0.163469647148779,-0.442199057360771,-0.0325512380215159,3.68474016159766,119.28494698033,-3.08263629555698,0.0238128463944915,-0.12393757341667,0.00316045380875203,0.000810372771474879,14.65,88.7500000000001,0.0486223662884927,0.016612641815235,0.00170063089712621,-0.00935256631812016,29.9735047356643,37.32905992363,5.05987698540058,-7.1964679209677,-0.27999794615559,-0.81051394229156,-0.0615279130288045,27.9286139387104,260.959134618297
-0.455890888651307,-0.0191857552998514,1.03947379710014,10.0509157803223,47.1594612264032,28.336152505093,-18.8301128345271,0.492467321388113,-0.956797355665899,0.186997889584408,-0.363311591447627,-0.0302774350021112,1.04203277488771,101.730931594608,2.57441467253523,0.0268963898484644,-0.107884273982447,0.00316045380875203,0.000810372771474879,14.65,88.7500000000001,0.0486223662884927,0.016612641815235,0.00192084687566084,-0.00814115364120378,29.5192127606074,36.7971371399111,4.94933389671682,-4.9025618794936,-0.245152231489299,-0.865343607081209,-0.0396846865914396,16.7703725785684,249.963188349461
-0.512577955049293,0.00619953707111714,0.994337936996953,10.3126969520438,51.7297425184388,30.0996958225677,-21.6373148547757,0.630851501211435,-0.715617916941691,0.239544624068007,-0.271731817330929,-0.0276514657473126,-0.857481157297507,83.3605597851228,7.12317088732166,0.0303472053254626,-0.0941902007821318,0.00316045380875203,0.000810372771474879,14.65,88.7500000000001,0.0486223662884927,0.016612641815235,0.00216729214823531,-0.00710777268787043,29.4718928644498,36.8927266140091,4.78682398370273,-2.2614016626731,-0.189467385623264,-0.811458573283136,-0.028618470458129,8.67938045546145,236.14801156159
-0.546210659895892,0.00657338618664169,0.960305080182079,10.4480482876524,56.1431610647681,31.4790821727709,-24.6708303168261,0.811876034062301,-0.502076103505991,0.308282597403374,-0.190646501176452,-0.0250681000192386,-3.74756756990127,61.6420898346789,11.2795920545861,0.0309760724678349,-0.0808896135430505,0.00316045380875203,0.000810372771474879,14.65,88.7500000000001,0.0486223662884927,0.016612641815235,0.00221220365838359,-0.00610408493770572,29.9041302792257,37.6059448757545,4.6848817360984,0.518755842731581,-0.158436876613293,-0.702384980204033,-0.0321409311904417,6.07943106930688,219.693283323701
-0.560384471422462,-0.0108105147700836,0.902668683467973,10.5530808845785,60.1614799608527,32.4087568289759,-27.7598976911066,0.949705750893503,-0.327376331644968,0.360618793228109,-0.124310142944993,-0.0230177007083237,-5.15064604985184,38.3405854018448,14.1046131094502,0.0311931393137075,-0.069279094574779,0.00316045380875203,0.000810372771474879,14.65,88.7500000000001,0.0486223662884927,0.016612641815235,0.00222770581964215,-0.00522793297147765,30.7680881277682,38.9296636880744,4.58298383050603,3.0302203058996,-0.131862397894877,-0.554437106488914,-0.0468283699950385,3.86795531511901,201.051599792873
-0.586503889033132,-0.0330248896546376,0.867921964412607,10.6123099245173,63.882331393757,32.8803353043112,-31.0094167030305,1.04671478661228,-0.191777759128281,0.397454709363413,-0.0728211490767174,-0.021827311867567,-6.57133260168629,15.2818580060433,14.6434862021504,0.031422655307705,-0.0590620000673939,0.00316045380875203,0.000810372771474879,14.65,88.7500000000001,0.0486223662884927,0.016612641815235,0.00224409705588122,-0.00445693147996411,31.7549326373777,40.2989647459384,4.6092916620852,4.79604250085951,-0.162213050997616,-0.410286363213656,-0.0622246115433438,2.79685457014345,180.813683630881
-0.595506196759983,-0.0596726029766549,0.816808799269794,10.6617112761273,67.1549817920714,32.9164178613983,-34.2456321444708,1.08212764211829,-0.135537811061218,0.410901549298123,-0.0514659217507013,-0.021005031212294,-5.93905294676409,-6.89654929253717,14.0401427625909,0.031216383998341,-0.0504464617195158,0.00312803889789303,0.000810372771474879,14.51,88.25,0.0486223662884927,0.01677471636953,0.00222936587439692,-0.00380678647919069,33.3203539538273,42.0210536752561,5.10104278931851,6.42423885315414,-0.217577805884833,-0.260209430388643,-0.0713773866194305,2.04198491462294,158.15799057273
-0.601572602776627,-0.0759445105471987,0.773147723588953,10.6916492972421,69.8891100168838,32.5529370577873,-37.3432596386727,1.08509977476695,-0.14210337718502,0.412030116633916,-0.0539589744990892,-0.020293720981033,-5.23650281458853,-27.7959512613805,12.6336639332496,0.0314934329191387,-0.0440267840288061,0.00307131280388979,0.000810372771474879,14.265,87.375,0.0486223662884927,0.0170583468395462,0.00224915174740507,-0.00332234532314621,35.2273342118449,44.0657174190992,5.75325638954156,7.91528620088754,-0.285942445400679,-0.0989835480915356,-0.0770321603782501,1.60355223139793,135.055916270016
-0.597775097682961,-0.0911257259970782,0.705110933359417,10.7230096611007,72.2439530957119,31.7613655987,-40.487883425536,1.09253423782985,-0.198060867927467,0.414853103749156,-0.0752069481631731,-0.0187858570337233,-2.32190936640606,-49.1380659313865,9.69603939304927,0.0307481634606597,-0.0384266717501775,0.00292706645056726,0.000810372771474879,13.642,85.15,0.0486223662884927,0.0177795786061588,0.0021959271875697,-0.00289975014049962,36.8223648445843,45.7037797252286,6.37090803663282,9.42314058110641,-0.364603397308647,0.0490298063390787,-0.0798548948264761,1.10197758791324,109.904323806064
-0.597002302602949,-0.0928429610102613,0.651366473048998,10.7439614424996,73.944916563952,30.600883136217,-43.3508441994145,1.10367632994576,-0.291012979153428,0.419083938204034,-0.110502383772334,-0.0170241464261769,0.778977560757154,-66.3023373078717,7.15609699755555,0.0277204015422481,-0.0307387566187557,0.00263776337115073,0.000810372771474879,12.3925,80.6875000000001,0.0486223662884927,0.0192260940032415,0.00197969493283244,-0.0023196053617006,38.2769969247639,47.3078593642883,6.82398881362613,10.6661969041284,-0.424110168153079,0.223785767360722,-0.0882532445907738,1.1334377077707,86.3949882416616
-0.576791319355891,-0.0926626406300566,0.589690221365993,10.7676416119306,75.342759545389,29.1203420282302,-46.2300925237278,1.099978716361,-0.380810386766307,0.417679893901357,-0.144599926867027,-0.0150695057367982,4.14371792174409,-83.8656453761476,4.8131618920057,0.0224576443506158,-0.0244292181108243,0.00223338735818477,0.000810372771474879,10.646,74.4500000000001,0.0486223662884927,0.0212479740680713,0.00160384706752923,-0.00184347551902752,39.9082096778207,49.279408013606,7.15932336279729,11.7902175936964,-0.456780983364001,0.420302902807573,-0.095407517253813,1.01376973500592,62.153320822288
-0.544823726179835,-0.0817494682189442,0.522717253035123,10.7844654209575,76.3523956356689,27.3206867427587,-49.0387392006929,1.01676746608464,-0.436948899371713,0.386083222375013,-0.165916637490644,-0.0125539689002156,7.44276660030231,-98.8595620570924,3.17151694819276,0.00954125780342622,-0.0047362274445403,0.00186385737439222,0.000810372771474879,9.05000000000001,68.75,0.0486223662884927,0.023095623987034,0.000681403539465434,-0.000357404780904046,41.6065981866794,51.565376752554,7.27523868725583,12.9411293208777,-0.460724766338457,0.637103039096126,-0.0972409686809718,0.0832049460429197,35.9998753052605
-0.512582331081667,-0.0752475447219372,0.447885796151541,10.7592913590031,76.7078223733992,25.2772209090451,-51.4392568221313,0.855019195175614,-0.222995895195647,0.324664760701944,-0.0846751854925787,-0.00872534256518481,9.95245218270992,-110.362053514595,2.45152711187025,-0.00971280473605199,0.0214979147107551,0.001677471636953,0.000810372771474879,8.245,65.875,0.0486223662884927,0.0240275526742301,-0.000693654826400964,0.00162227375839993,42.6590899839908,53.1589500649913,7.17011354886274,14.3036545541142,-0.446908216526847,0.813700926995007,-0.0965235864627074,-2.11168154396967,11.9843095098904
-0.466415947684296,-0.0598621075223171,0.369530131341327,10.6730531879214,76.7079669812968,22.9868085853751,-53.7275649142088,0.464275202791746,0.295190050281231,0.176292881451941,0.112088485939157,-0.00363704345358098,12.508791488056,-121.682051764417,1.55224722419549,-0.0281563455306732,0.0466517511499374,0.00163290113452188,0.000810372771474879,8.05250000000001,65.1875000000001,0.0486223662884927,0.0242504051863857,-0.00201082854045962,0.00352043036230322,43.1969884114077,54.0221195407269,7.06764732435923,15.9329970437717,-0.42367050418473,0.915374373114486,-0.0946239538238801,-6.19692021790888,-13.382886096317
-0.438874501583884,-0.0491500004278837,0.322297065864284,10.5109191029025,76.2009254847561,20.5409572997678,-55.6665087920472,-0.0987179856996767,0.878222736059653,-0.0374848323698518,0.333475524356212,0.000900119247296128,13.8370019283495,-128.344729936521,1.80173023146684,-0.0328924855425941,0.0554726413212397,0.00162074554294976,0.000810372771474879,8.00000000000001,65,0.0486223662884927,0.0243111831442463,-0.00234906723330448,0.00418607160440344,44.1944408466199,55.6080709368116,6.89230668997379,17.1414543149289,-0.383136338380365,1.06542306081716,-0.0954954803917122,-9.62015489652507,-34.7805762540415
-0.40478354169902,-0.0355607633144946,0.314012512648873,10.2675621798967,75.3147096562144,18.0164112263509,-57.3049934005703,-0.610110975496642,1.17971497374194,-0.231669107522858,0.447957053838728,0.00395466387756402,14.1291136622683,-130.807900783513,1.83150599100102,-0.0320764463312182,0.0516911622381631,0.00162074554294976,0.000810372771474879,8.00000000000001,65,0.0486223662884927,0.0243111831442463,-0.00229078854317471,0.00390071396079234,46.305713904455,58.8070813553608,6.67908726368781,17.5773883321675,-0.31276995869183,1.37243942123319,-0.107177447269584,-11.8367427329838,-52.3218484824001
-0.40146777727434,-0.0244996094623641,0.321090525445956,10.0197767385689,74.110060780907,15.4661830829894,-58.6500059845727,-0.821086572158812,1.03224496826329,-0.311779989232601,0.391960282877804,0.00553821715151707,12.7721798854894,-127.934014043393,3.25399158921837,-0.0301626834587933,0.0455837374556393,0.00162074554294976,0.000810372771474879,8.00000000000001,65,0.0486223662884927,0.0243111831442463,-0.00215411423651259,0.00343983600637693,49.9372605702678,64.1838934099882,6.43805775624371,17.2951971513048,-0.225508412004654,1.88928052289377,-0.119911367305791,-11.8414074881958,-65.5598743842212
-0.396862371649414,-0.0134610510950357,0.342271630941231,9.80705913714477,72.744686957356,13.0517200956369,-59.6995602712315,-0.856018722943532,0.705780833855598,-0.325044297729203,0.267996516130474,0.00760646570557025,11.1101122161722,-120.888533582236,4.74462363714126,-0.0277548733171859,0.0364178148181122,0.00162074554294976,0.000810372771474879,8.00000000000001,65,0.0486223662884927,0.0243111831442463,-0.00198215678743676,0.00274815795450778,53.6747659739714,69.711306680376,6.19627531721628,17.1689509091542,-0.153874151606459,2.43046475946794,-0.120095814441229,-10.3553648433303,-76.0297346937376
-0.405106766308522,-0.00122516897094575,0.360589515854259,9.63447290730648,71.2289756468021,10.8217057873251,-60.4142808991421,-0.879884403287931,0.319397062712892,-0.334106486556919,0.121280284138283,0.0101597806162981,9.31567901825277,-111.193584340436,7.33647854481305,-0.0265238277662977,0.0274750602647502,0.00162074554294976,0.000810372771474879,8.00000000000001,65,0.0486223662884927,0.0243111831442463,-0.00189423978394513,0.00207332059307418,56.7134689759435,73.9202036324346,6.28475336257039,17.1017642364213,-0.10013564869469,2.83237643200297,-0.12415990784936,-8.5884573465948,-85.0975734344978
-0.397245696598629,-0.0030092561753983,0.382039067114543,9.46174221828031,69.4362324790852,8.77317113826011,-60.6712564557757,-0.829820497975162,-0.0499948793404101,-0.315096403590493,-0.0189838726767333,0.012644889323614,6.97986791337338,-100.536300678255,9.22864960477974,-0.0251264262326656,0.0179487376096276,0.00162074554294976,0.000810372771474879,8.00000000000001,65,0.0486223662884927,0.0243111831442463,-0.00179444221315426,0.00135444606661955,58.5788312305077,76.702464668787,6.14051292536159,16.784666541704,-0.0714638169147348,3.10034209359208,-0.130426279630965,-7.05575778562684,-90.9666284264285
-0.384964446851147,-0.0174168257119676,0.41522131844985,9.40872836267291,67.9993251535228,6.99374138893551,-61.0129795819492,-0.804683966994839,-0.388536017737123,-0.305551652008715,-0.147533475195022,0.0160925924121538,4.27217942950871,-86.990047538826,11.9503198997357,-0.024585504340399,0.00838887010086917,0.00162074554294976,0.000810372771474879,8.00000000000001,65,0.0486223662884927,0.0243111831442463,-0.00175581144773961,0.000633040181355703,59.8266076258902,78.6883992271715,5.91920066813598,17.1526440225571,-0.0736602435896506,3.23940428986824,-0.134396827629723,-5.70709733388852,-93.9628857406218
-0.361030736925068,-0.0384788155724178,0.421228929317144,9.1992387709964,65.525111648282,5.42926283008283,-60.1021816135302,-0.78004482640238,-0.713740679721347,-0.296195767685311,-0.271018999681498,0.016721027412665,2.3536738461902,-73.7908791190685,14.1145303489011,-0.0233415027240969,-0.00111476072643924,0.00162074554294976,0.000810372771474879,8.00000000000001,65,0.0486223662884927,0.0243111831442463,-0.00166696916699288,-8.41219763744099e-05,60.4799279713485,79.7907367763985,5.74079761203051,15.9146654091245,-0.083302661108036,3.35571142269011,-0.137609665242009,-4.87045079325751,-94.344830225604
-0.373465114109071,-0.0468990981176262,0.493843695328015,9.28157780563384,64.7772410856637,4.2444250134519,-60.5410419469473,-0.771895858911229,-1.06183652458163,-0.293101471562592,-0.403196680382211,0.0211616765197406,1.6249902890464,-57.6822207768056,14.7310364275802,-0.02310110811568,-0.0105500593475457,0.00162074554294976,0.000810372771474879,8.00000000000001,65,0.0486223662884927,0.0243111831442463,-0.00164980101784331,-0.000796127655140563,61.5422018195281,80.9748068164396,6.05900965503926,17.4112562757862,-0.117499150081595,3.39711848247929,-0.143109389375806,-4.12046023156001,-91.7204215479694
-0.376314096749984,-0.0396367724160174,0.482018578043181,8.94573848743324,61.4452452556522,3.22591840234911,-58.2275389677237,-0.73107774023191,-1.34677423702305,-0.277602164870884,-0.511392186105043,0.0173937731172911,1.06659342086501,-42.6072055704159,15.9617856104618,-0.0218177718371645,-0.0183081416925977,0.00162074554294976,0.000810372771474879,8.00000000000001,65,0.0486223662884927,0.0243111831442463,-0.00155814959194946,-0.0013815673860735,62.7045864699612,82.7415005269203,5.93617608189538,14.0789450971106,-0.0851142610027395,3.6906905605528,-0.149365005848251,-3.12652081022773,-88.2238786243175
-0.440639574405196,-0.0505184407803349,0.691932033069615,9.30923030576176,62.3815479985474,2.7826160545693,-59.6064122298629,-0.76045113762214,-1.69485030433949,-0.288755723865244,-0.643562356949166,0.0244528482624016,-0.0834581877457922,-21.9269095907627,15.4362511456894,-0.0228018907650945,-0.027067348502766,0.00162074554294976,0.000810372771474879,8.00000000000001,65,0.0486223662884927,0.0243111831442463,-0.00162843195246859,-0.00204255388377437,65.1030269741255,85.5531894793355,6.5163942190143,17.9824881575274,-0.135119123945124,3.81468186018012,-0.151054726892504,-1.87185809409014,-80.9513599006478
-0.197473185401951,-0.22714580781157,1.77485701961044,8.62070278246594,56.7832902672077,2.42866708979702,-54.3616458608973,-0.726292539162336,-1.83990332687686,-0.275785145827417,-0.698641359990163,0.0603228503273679,-24.2237176714845,4.57298448979294,38.5073416718847,-0.0211415139162049,-0.0317741340029883,0.00131645056726094,0.000810372771474879,8.00000000000001,62.5144953001496,0.0455794165316046,0.0560480224772527,-0.00150985359676443,-0.00239773691925306,64.1882559706102,84.3772019554149,6.3987001832978,39.2673179305441,-0.544400953608984,4.1057073911275,-0.0258466766819316,0.39564827265238,-70.3460131540208
-0.0492966150056393,-0.413917446876302,1.47021755693232,9.91449982234068,63.5821181730403,3.35343339274085,-60.2363112885284,-0.900102908246655,-1.75438506875852,-0.341783783290388,-0.666168679886255,0.210486190409798,-30.0092303100748,26.9411809637567,38.670045239,-0.0268640450649612,-0.0358696857396659,0.000810372771474879,0.000810372771474879,8.00000000000001,58.5432599871823,0.0405186385737439,0.108445815721919,-0.00191853692340754,-0.00270679508596247,45.142319009791,53.3419100059317,10.4989697746875,130.266106604847,-1.38032645920366,1.08060391108075,0.169912828587495,5.92429309267603,-26.665152423308
