accel_x,accel_y,accel_z,angle_ankle,angle_knee,angle_shank,angle_thigh,current_ankle,current_knee,current_qaxis_ankle,current_qaxis_knee,ground_reaction_force_vertical,gyro_x,gyro_y,gyro_z,impedance_current_desired_ankle,impedance_current_desired_knee,impedance_damping_ankle,impedance_damping_knee,impedance_equilibrium_angle_ankle,impedance_equilibrium_angle_knee,impedance_stiffness_ankle,impedance_stiffness_knee,impedance_torque_desired_ankle,impedance_torque_desired_knee,loadcell_force_sagittal,loadcell_force_x,loadcell_force_y,loadcell_force_z,loadcell_moment_x,loadcell_moment_y,loadcell_moment_z,velocity_ankle,velocity_knee
0.203650655190811,-0.112960159734483,0.427647424122909,0.0254320914602567,2.82943111440768,-5.88697556348171,-8.72070387811256,0.170935024468582,0.555040828394554,0.0649068221249403,0.210758072739542,0.181186033379511,3.28577703009355,21.5004063294835,-3.51479139422761,0.0139574515771611,0.0163703247160894,0.00295589308926441,0.00331202478676615,0,0,0.04204134689008,0.0225431364518599,0.000974676935492912,0.0012079276050414,7.3901447002876,14.6438129708999,-4.19257010785347,111.988778136093,-2.21780547325683,3.13912775922761,0.120823494478145,-27.5030468128527,8.06748740840432
0.370110765842109,-0.123182932281577,0.996434563675635,-0.543476426714224,5.90546812089464,-11.5339566750715,-17.4469274835857,0.747409376896494,1.33421828843533,0.283803554195821,0.506624487243288,0.396196221496604,5.68016961458774,44.2322211044334,-20.9216991726283,0.0409648398875507,0.0311145288268064,0.00295589308926441,0.00331202478676615,0,0,0.04204134689008,0.0225431364518599,0.0028606572183915,0.00229586761042172,24.0984294154308,33.008716624276,1.07160908691701,245.386615716322,-5.88009094504344,6.6706108207993,0.237990004158337,-61.2187941168055,20.4694350699754
0.155930543058146,-0.0287467950478369,0.951805094735729,-1.45715499430641,5.55910659388623,-9.48270886967546,-15.0482779787388,1.34026937251464,1.47637777653549,0.508922182751974,0.560604767973792,0.394695238281164,3.79103581262921,40.6394119385514,-23.9762143155898,0.0512071860200666,0.0261856502039454,0.00295589308926441,0.00331202478676615,0,0,0.04204134689008,0.0225431364518599,0.00357590086337277,0.00193217729555578,32.940858905935,32.9257892595634,13.6596201614284,242.203308886012,-7.06572103906981,6.09531897106907,0.0341019841066278,-58.4345849060357,25.2291275934251
0.0785202802952535,-0.0342935425993875,1.01762018511636,-2.33876036175167,6.38756282174053,-9.60876009973692,-16.0035989754691,2.02976770793029,1.74345382209101,0.770735968144399,0.662017906893668,0.454139359894036,3.78899844163448,45.7837988011272,-12.2351707448195,0.0603508658639353,0.0353576184409016,0.00295785181360067,0.00330267632970673,0,0,0.0419304118663082,0.0223810965294966,0.00421442243015602,0.00260895517370583,40.919457191888,37.6101761502672,20.258675175446,278.1898610363,-8.37684738608953,6.63387482888784,-0.245899799218815,-58.7405443605685,34.1505909188541
0.056680323954839,-0.0453938521444033,1.02401526094797,-3.06726232139044,6.69094867520004,-8.47019568159333,-15.1679368851188,2.59655831256258,1.90074357739241,0.985955622930344,0.721743397331699,0.473096457030904,3.64540622092693,46.2548071105438,-0.7294348313953,0.0627560471500215,0.0395501682150623,0.00298295909827454,0.0031987749069606,0,0,0.0408376217525241,0.0205801385352303,0.00438238108021957,0.00291831352154248,44.2421573527261,38.6099064095209,23.9579525473488,289.492875376019,-8.56760579736904,6.52001977846959,-0.437994798635952,-49.032582902489,38.5135201614316
0.0265919676533701,-0.111228492694789,1.10124631932885,-3.66426626811502,7.43008822887024,-8.06009643182978,-15.496863015564,3.00901818915618,2.18824252408215,1.14257337828484,0.83091144555302,0.521696819356348,4.1538224931395,49.666058843941,3.57976069656567,0.0622108845004773,0.0445317662101105,0.0030729713848181,0.00281121458715433,0,0,0.0366085578446909,0.0138624263252551,0.00434431127516487,0.0032858938743942,47.3213414026383,41.6460735272801,25.2764092740185,319.45680292363,-8.61833523421105,6.77859827437977,-0.441631052772297,-38.8813090982933,41.8194275510675
-0.00960044233422195,-0.135196925425132,1.06368364687286,-4.10274608944526,7.92592649763411,-7.14405164532977,-15.0776438204737,3.16513730371368,2.44073880754247,1.2018543573024,0.926788410550208,0.562048953901743,5.20580349439703,50.0945793940109,2.14566932516747,0.0574148668512456,0.0465886939369869,0.0031508751936466,0.0024605138980395,0,0,0.0326327035737816,0.00778361438059799,0.00400939570987843,0.00343766971427276,49.9835806297689,43.8585427464175,26.8289148761708,344.371798624639,-8.17644394514506,6.58448609265553,-0.319931008162759,-24.5591477331943,43.1531770572773
-0.00602681183455145,-0.138171662135583,1.01884771246345,-4.32433139109862,8.64847420528987,-6.52070536589784,-15.1773889199655,3.11317765156286,2.67779062399953,1.18212442828222,1.01680085904054,0.615691948328374,5.99764997153135,51.3530415444832,0.00559856640577691,0.0481474722712519,0.0461909773598423,0.00316957210776545,0.00237717908082409,0,0,0.0316957210776545,0.00633914421553091,0.0033622348940736,0.00340832314718582,52.5150902652071,46.1507168933598,28.1168359889434,377.599089429445,-7.62423484486361,6.28199917862257,-0.184941782059848,-9.89224947046875,44.3378306612649
-0.00287498112586188,-0.106404163269565,0.996923353599643,-4.33483725510512,9.25873602827293,-5.70134179384534,-14.9671827450931,2.81120645495664,2.7882377470975,1.06746103026938,1.05873943655219,0.663630950531679,6.5119175132134,51.8362745130394,-2.34094425731299,0.0316969361500824,0.0364253158609654,0.00316957210776545,0.00237717908082409,0,0,0.0316957210776545,0.00633914421553091,0.00221346084709545,0.00268773804514509,54.6664052338498,47.0039906350052,30.3059810528887,407.379337029356,-7.04863105783471,5.7011722373271,-0.137259409399871,3.96861307392159,45.5278012230287
0.0601931004708716,-0.0830324333652676,0.986995774228959,-4.19782273455321,9.98289984161469,-4.96735793576809,-14.9580095200669,2.32846591715891,2.71920878225633,0.884156559364449,1.03252801056537,0.713059590391322,6.48500748160325,53.1010058088785,-2.95926595063211,0.0235048671299485,0.0363364615948083,0.00316957210776545,0.00237717908082409,0,0,0.0316957210776545,0.00633914421553091,0.00164139217942005,0.0026811816986597,56.2228455439121,46.7431747976884,32.7679358857198,438.16917610459,-6.60822554318482,5.02304644220576,-0.214070967757758,12.526574237242,50.217331214195
0.106023051658236,-0.0572769007546654,0.976083031209993,-3.96387002384349,10.7568027906504,-4.16794235181776,-14.9325733966495,1.78952903894589,2.60932324068284,0.679513419671492,0.990802674735645,0.754191110097614,6.03192673298788,54.988541272728,-2.68426175718847,0.016092794826395,0.0395138736757515,0.00316957210776545,0.00237717908082409,0,0,0.0316957210776545,0.00633914421553091,0.00112379225234591,0.00291563543319016,56.6424514096559,45.208170516177,34.8963524734174,463.9628530183,-6.16312567766431,4.21350411654624,-0.39438821825526,20.5263476986138,54.597619349262
0.0912971883319124,-0.0487359463082235,0.966779459746324,-3.63708667988491,11.5963817922288,-3.33397014405466,-14.9376173002995,1.23584219018884,2.60732381566575,0.469269475126365,0.990043460383057,0.787475322646136,5.15922718605257,57.2257835987257,-3.38351910781892,0.0101994809761894,0.0421636364572694,0.00316957210776545,0.00237717908082409,0,0,0.0316957210776545,0.00633914421553091,0.000712250284841219,0.00311115517187078,57.3551344923884,43.8695291022809,37.2428799685877,484.941103088624,-5.76678934323127,3.47568378236243,-0.634937152403622,25.070277350274,57.659822643066
0.0684283924403595,-0.0426841032342219,0.964327029562381,-3.23154165189223,12.4738797280626,-2.48374932490642,-14.9646036640804,0.727428907937141,2.74788490956997,0.276216643621177,1.04341680471721,0.80935426646586,4.07843460140022,59.1824453097837,-3.40315840626488,0.00453629566766073,0.0448587759430015,0.00316957210776545,0.00237717908082409,0,0,0.0316957210776545,0.00633914421553091,0.000316778656576549,0.00331002315040594,59.6199028237634,44.046891908156,40.2683832525762,498.884179286035,-5.48827974071878,2.98508466247656,-0.907809513557934,29.6657692632362,61.0054589548265
0.0520227458395021,-0.0429508889525057,0.954044302224927,-2.75944420583505,13.406275959908,-1.59430763121622,-15.007354472594,0.273685162226795,2.95966783184864,0.10392272852282,1.12383424115645,0.820137202600195,2.99397903859025,61.1122646454194,-2.66656882015514,-0.00192971592495917,0.0476471945380822,0.00316957210776545,0.00237717908082409,0,0,0.0316957210776545,0.00633914421553091,-0.000134755946937244,0.00351577397415706,63.2799880374672,45.7202927989967,43.7711245103967,506.109276344042,-5.29621093988507,2.7127020166363,-1.19025116555993,34.0279448905611,64.3002428757332
0.0369781948547642,-0.0466763951460628,0.951239709915558,-2.25452755578288,14.3783668088749,-0.688148292250048,-15.0741292603403,-0.102959342195565,3.17632374756698,-0.0390953447414556,1.20610203283673,0.818745999938162,1.78108870473618,62.8795194744395,-2.09030184002431,-0.00764150827719173,0.0505406718452634,0.00316957210776545,0.00237717908082409,0,0,0.0316957210776545,0.00633914421553091,-0.000533621902894099,0.00372927683219566,67.2502032166094,48.143907023395,46.9622424378808,506.04159221368,-5.15210502741899,2.60764278753262,-1.42087219010529,36.8477581776062,67.6745576871328
0.0180093879309321,-0.0564642081882018,0.94299860515513,-1.67689309628951,15.3762535420819,0.241154822123824,-15.1427192292228,-0.425077929231889,3.38881736042271,-0.161409036139128,1.28678933010183,0.806711695747063,0.785237299551861,64.2739567885908,-1.63837686007883,-0.0132069281959998,0.0532830322961083,0.00316957210776545,0.00237717908082409,0,0,0.0316957210776545,0.00633914421553091,-0.000922266377224303,0.00393162913424216,71.2580585160286,51.1595820366558,49.6145307450875,499.667759762687,-5.01528723585728,2.6418783187199,-1.57259720545444,39.1183202882088,70.5505636357375
-0.00394482749969086,-0.0636890259023444,0.940335474450974,-1.03910996645159,16.4581212029184,1.18927778065306,-15.2762255669025,-0.742737249188686,3.59979015858452,-0.282029470955604,1.36689914917525,0.787971638475008,0.0580009355518597,65.5804306132477,-1.24327908997324,-0.0190529063401851,0.055966187335139,0.00316957210776545,0.00237717908082409,0,0,0.0316957210776545,0.00633914421553091,-0.00133050279710605,0.00412961280875447,75.0874100802123,54.4981329264374,51.691500772469,489.427005191684,-4.87286741037884,2.77644704728956,-1.64615567503491,40.7565327648762,73.0854660323447
-0.0174487339779693,-0.0753852354845589,0.94262946943055,-0.455700612802587,17.528748195057,2.15078896808962,-15.3860205905483,-1.0356962328425,3.80023101255073,-0.393270784437362,1.44300981692987,0.766795773729624,-0.248806578585636,66.4349603495815,-0.964883580266627,-0.0237805765916354,0.0583824347722678,0.00316957210776545,0.00237717908082409,0,0,0.0316957210776545,0.00633914421553091,-0.00166064552604409,0.0043079020015797,78.8531808415361,58.0693630761034,53.4458747062553,477.9510492672,-4.71832849843749,2.98333425275472,-1.6502817956591,40.9511642728929,75.0441312829449
-0.0260594767988875,-0.0868817779830561,0.943470699890565,0.117576440828331,18.6570144360505,3.13285911266229,-15.5318825835442,-1.29851953848459,3.9874418693752,-0.493069088515971,1.51409683857181,0.746850602644624,-0.597132748280182,67.3569958667687,-0.727908818047661,-0.0273821128265179,0.0608279829232273,0.00316957210776545,0.00237717908082409,0,0,0.0316957210776545,0.00633914421553091,-0.00191214805005972,0.0044883532248898,82.7784710482428,61.8017082894903,55.2647281394433,467.53143256627,-4.55581655477183,3.23802856155847,-1.60630471340679,40.1402692208598,77.1873284671688
-0.0209060029310681,-0.0924589816528125,0.947765814572163,0.707428945697565,19.8007795149705,4.12485973452209,-15.6832865995397,-1.53802831427899,4.171855831764,-0.584014484617086,1.58412183369109,0.730959351308614,-0.718377122180384,68.497785877375,-0.890085557188773,-0.0310461452219742,0.0634738458742887,0.00316957210776545,0.00237717908082409,0,0,0.0316957210776545,0.00633914421553091,-0.00216801480675289,0.00468358520428983,87.0591884095579,65.6739422545489,57.4463427234424,459.925424646027,-4.40160510670181,3.50606803920178,-1.53816735748435,39.189352543294,79.5689718896735
-0.015045555525795,-0.098391566072094,0.952496512837031,1.25879843419155,20.9890099244401,5.13666147985691,-15.8594718539931,-1.74184677967488,4.36341171240945,-0.661407686626783,1.65685873188204,0.718808710645037,-0.612494861870098,69.964177333536,-0.84946686015363,-0.0339297586418961,0.0663397462277477,0.00316957210776545,0.00237717908082409,0,0,0.0316957210776545,0.00633914421553091,-0.00236938333565216,0.00489505322403159,91.7214378958304,69.755344312214,59.9583571204309,454.989713900037,-4.26660247889887,3.77354525848643,-1.46129830471662,37.2042033812182,82.5727714525093
-0.00452623945547185,-0.100616704542944,0.95331567150793,1.78306011928601,22.2443734541177,6.17693507046967,-16.0746170459593,-1.89894384828843,4.58868712159571,-0.721060010780651,1.74239948608753,0.708968608122404,-0.658681079256286,72.047162770324,-1.4368042169617,-0.035905085275491,0.0697343254224949,0.00316957210776545,0.00237717908082409,0,0,0.0316957210776545,0.00633914421553091,-0.00250732437017311,0.00514553120708615,96.7456668598929,73.9081481302178,62.9108860438721,451.892644109683,-4.17980425821097,4.04836161081606,-1.39499058195663,34.2780774419526,86.3840181868983
-0.00112562169128874,-0.100994384246539,0.950442350991303,2.28895696799327,23.5643683075896,7.24974415003502,-16.3218265611912,-2.02349231520774,4.84155869958119,-0.768353098978335,1.83841895654879,0.699064203636221,-0.604486750971431,74.6101296841988,-2.14454119510567,-0.0374670673228288,0.0733954107037075,0.00316957210776545,0.00237717908082409,0,0,0.0316957210776545,0.00633914421553091,-0.00261640072030606,0.00541567404495185,102.341483697055,78.2568366630175,66.4758775747427,449.234769589701,-4.17626940112146,4.36228423018603,-1.35152453356085,31.4282491842877,90.5795205538206
-0.00461298947934123,-0.102164208268869,0.944189432933865,2.74613061443902,24.9692405408012,8.37692585616966,-16.6001585950941,-2.11721058038681,5.12951749278831,-0.803939455763592,1.94776161600734,0.687229661393229,-0.330211786156093,77.7676905302456,-2.92886246877824,-0.0394949159040787,0.0774598149394705,0.00316957210776545,0.00237717908082409,0,0,0.0316957210776545,0.00633914421553091,-0.00275800946814156,0.0057155768361042,108.700892939402,83.0461271533016,70.6801498836668,445.997073546318,-4.27731683181046,4.75993145953947,-1.33344709771226,29.5194420511818,95.3154614937039
-0.0121815933447127,-0.105793509955128,0.941706923817339,3.14129078193575,26.3392509724155,9.54000243793397,-16.8069661386448,-2.16370415031296,5.42351610437027,-0.821593824039094,2.0593976932025,0.67212514339722,-0.290035359327923,80.8748978526976,-3.67232786752645,-0.0408110725056016,0.0815811696252997,0.00316957210776545,0.00237717908082409,0,0,0.0316957210776545,0.00633914421553091,-0.00284991933262572,0.00601968186648804,115.635579325572,88.1858208851247,75.3475836899686,441.321270735858,-4.47645076133983,5.25285110131844,-1.32853078662738,26.8515080451196,100.246441652035
-0.0243353149283637,-0.104868677140715,0.932042128274145,3.50314057111155,27.8818420353683,10.7614519607851,-17.127694455306,-2.20212240419354,5.72882446142479,-0.836181862849338,2.17532826557175,0.65300906363746,0.127217960242358,84.205718322463,-4.33738734501615,-0.0411572636861689,0.0859679103548992,0.00316957210776545,0.00237717908082409,0,0,0.0316957210776545,0.00633914421553091,-0.00287409455953621,0.00634336910637735,123.076018291227,93.6671064833426,80.3886677869893,434.848230504699,-4.75911082733536,5.83646315183766,-1.32567829054125,23.3835791956176,105.264312886146
-0.0430442762066502,-0.107380965088661,0.916423932943554,3.82851773448808,29.4370862101153,12.0223517463179,-17.4219856496139,-2.22093898054464,6.03189478751645,-0.843326824380877,2.29040902101163,0.629995284705411,0.506857878360127,87.5883209696532,-4.8096579970315,-0.0411078904817168,0.0903404917871549,0.00316957210776545,0.00237717908082409,0,0,0.0316957210776545,0.00633914421553091,-0.00287064672929694,0.00666601156515044,130.441317550212,99.1038304984291,85.3680498748969,426.498703141507,-5.09664728931748,6.47228147588344,-1.31407136932286,19.9194850274873,110.112722536987
-0.0650357049165841,-0.110080824782356,0.910087789195044,4.12568407109497,31.1559467543992,13.3450135851411,-17.8183597805463,-2.21678482919173,6.34953415776016,-0.841749425227125,2.41102188059604,0.60241735153656,0.35114669334215,91.0231891922419,-5.35507462913181,-0.0410623734885358,0.0951058745630971,0.00316957210776545,0.00237717908082409,0,0,0.0316957210776545,0.00633914421553091,-0.00286746818605205,0.0070176379075401,137.593929752014,104.448769982545,90.1384315729648,415.891576121809,-5.49907827767614,7.15488049950717,-1.29597487549079,16.5816676340239,115.725139794261
-0.0854690433881533,-0.110358637718782,0.894250966312188,4.33651144726721,32.8975715537616,14.701564165033,-18.2031054331874,-2.17943860370476,6.67301812824791,-0.827568453116486,2.53385403040263,0.571263853174839,0.308132979381395,94.3924978439571,-6.26495927916567,-0.0402499936995836,0.0999621861269007,0.00316957210776545,0.00237717908082409,0,0,0.0316957210776545,0.00633914421553091,-0.00281073807033035,0.00737597367047305,144.274198254707,109.466971939566,94.5675559327453,403.441484155334,-5.93843969735028,7.84416352836816,-1.25947301819258,12.9672024788518,120.750956714865
-0.118546688354128,-0.108200245389332,0.870938379216424,4.52209460664501,34.7078210889452,16.1246849656469,-18.5900690911894,-2.12536054162285,6.98529058230129,-0.807034129227484,2.65242898420612,0.536091932781223,0.662052895810852,97.5583807656108,-6.90364206390375,-0.0391942766203472,0.104395630622642,0.00316957210776545,0.00237717908082409,0,0,0.0316957210776545,0.00633914421553091,-0.00273701522186843,0.00770310707098288,150.535890324947,114.165591372784,98.7243063486647,388.956634091745,-6.41333461279256,8.55131748603542,-1.20215737334246,9.42012790735921,124.87358100013
-0.162146156893128,-0.102570133644406,0.84607242042203,4.64234755173923,36.5767199974933,17.5716821894538,-19.0163838384223,-2.0343757613522,7.28714274575429,-0.772485721331189,2.7670471833855,0.498116047586458,1.00629337796374,100.441364110633,-7.3521918915285,-0.0381251079756149,0.108598581375569,0.00316957210776545,0.00237717908082409,0,0,0.0316957210776545,0.00633914421553091,-0.00266235302351426,0.00801323288248252,156.156140216378,118.463423393559,102.374707948277,372.881299786069,-6.92205842219699,9.26477216716616,-1.12542653716996,6.58605148819114,128.398318084061
-0.203891194856387,-0.106422845386885,0.825586357711451,4.72895719796661,38.4865939953808,19.0629356320136,-19.4314919140766,-1.93906279846956,7.5698936981659,-0.736293831768137,2.87441234059008,0.458505593223141,0.760901315238963,103.025761585398,-7.25687123338394,-0.0372050882729288,0.112753996320303,0.00316957210776545,0.00237744617959722,0.000134761508135461,0.00644704119849601,0.0316948307484107,0.00633932228137966,-0.002598106195972,0.00831985113894341,160.953446355444,122.202952711083,105.419594035476,355.906213077987,-7.43315260310618,9.94899065748593,-1.0250242866273,4.50821796609358,131.699315147698
-0.2416952311674,-0.103109209013249,0.803505972902833,4.78889577813771,40.4880692864177,20.5935427999294,-19.9011092958038,-1.83470356881809,7.83966627583956,-0.696666926883417,2.97684939682059,0.418230067122206,0.315027549126015,105.397819730759,-7.47993914109145,-0.0365423298684205,0.116675352812288,0.00316957210776545,0.00239641019248919,0.00970282858576198,0.464186966292135,0.0316316173721042,0.00635196495664097,-0.00255182444266574,0.0086091987748655,164.84703896873,125.3021806434,107.826737583224,338.502245719912,-7.92321330615306,10.5772900176866,-0.900984714808496,2.89582892413748,134.242108733289
-0.27589015636795,-0.104833812377626,0.7803091483623,4.82153251019782,42.4764836273464,22.1435924161251,-20.3398243579667,-1.73716354102081,8.08079352784148,-0.659629384378701,3.06840935478602,0.378368305532655,0.287785065432833,107.502698834127,-7.23213712144904,-0.0358246744764033,0.12023771997065,0.00316957210776545,0.00240388895813672,0.0134761508135583,0.644704119850188,0.031606688153279,0.00635695080040599,-0.00250170912223175,0.00887205743555223,167.747763375197,127.670469527211,109.560692495745,321.128944610343,-8.36804815773775,11.1202283178328,-0.756470808985417,1.59201123029658,135.798795597935
-0.305760236363026,-0.107570491219351,0.762492133559811,4.84365066464076,44.4519281642761,23.7240054542305,-20.7352459087051,-1.66049181049602,8.28193873776835,-0.63051587536757,3.14478747800914,0.339322575589459,0.342874370760983,109.36788442636,-6.70860973814156,-0.0352659347422633,0.122907648259625,0.00316957210776545,0.00240388895813672,0.0134761508135583,0.644704119850188,0.031606688153279,0.00635695080040599,-0.00246269120203342,0.0090690651394107,169.78459106815,129.388245190957,110.72342617959,304.047916348243,-8.77535659225463,11.587590732405,-0.601700503932353,0.590417835381313,136.989432248705
-0.339260951338031,-0.109561566277268,0.746165211984918,4.8497327346897,46.467175085074,25.3398682783101,-21.1345638531447,-1.60407428630015,8.46456645716055,-0.609093219483587,3.21413420747272,0.301220494008931,-0.183604910586559,111.112113359486,-6.81919200068106,-0.0346487757502382,0.125875458147157,0.00316957210776545,0.00240388895813672,0.0134761508135583,0.644704119850188,0.031606688153279,0.00635695080040599,-0.00241959374747781,0.00928805282302949,171.004024839415,130.449401754853,111.386809393432,287.287667200786,-9.14615184089905,11.9774405430733,-0.439485267334815,-0.251946793531296,138.288264715609
-0.370645497982334,-0.116993712469801,0.728035644127299,4.84418471092445,48.4826914802628,26.9436391450122,-21.5464860792409,-1.56635124375703,8.62125512117045,-0.594769163778972,3.27363145372464,0.265006520767216,-0.270530483341415,112.349363119063,-7.41357760417712,-0.0343711137211008,0.12888559107205,0.00316957210776545,0.00238394558307663,0.00592950635796563,0.283669812734081,0.0317562634662298,0.00640680923805624,-0.00240020404913881,0.0095101634236365,171.318604093971,130.792395950024,111.488697446497,271.095464682163,-9.4679606443266,12.2669935954012,-0.287554304476252,-0.636060129497286,138.265740693731
-0.411993038537842,-0.125845149669714,0.713398680794108,4.83340092633563,50.507913869248,28.5953090626985,-21.9196588271325,-1.51897315890862,8.75969824957244,-0.576778930733191,3.32620057194686,0.228857215680356,-0.173770216489407,113.223726709615,-7.915279465273,-0.0338781404892446,0.130935482885099,0.00316957210776545,0.00237174807243719,-0.013791863079564,0.0707151310861399,0.0318622126462365,0.00644829858081519,-0.00236577873616177,0.00966142010004789,170.968577279681,130.557057928074,111.229022800483,254.5426745054,-9.77759333545212,12.4781271270172,-0.148840677473863,-1.21230124428786,137.140678757953
-0.469588239510537,-0.128181600737292,0.691713293847579,4.81481887614991,52.4521997360434,30.2303298977809,-22.2292276593955,-1.47989725039842,8.87851634409899,-0.561941169713017,3.37131774410415,0.194092320831606,0.287194735714287,113.492354252224,-9.21195910141242,-0.0336032089035533,0.134440336900552,0.00316957210776545,0.00238857529514415,-0.0833513301098003,0.411807041198497,0.03180612190388,0.0064595167292865,-0.00234657971018411,0.00992003500172692,170.256874819846,130.012451519292,110.767129938192,238.268247040899,-10.0790051815595,12.6306571063476,-0.0294021442547627,-1.7250798700186,134.645451783265
-0.535168423368178,-0.131862817968148,0.682133484609506,4.77770953138983,54.3216271213863,31.8538581016129,-22.4747859214967,-1.44446739631004,8.98684619594715,-0.548487875138799,3.41245235912287,0.160652954458056,0.161587799715677,112.600413287434,-10.7578194046473,-0.0326939781855128,0.135987236854863,0.00316957210776545,0.00242703751847434,-0.178718757533189,1.22722314606744,0.0316779144927794,0.00648515821150662,-0.00228308629915441,0.0100341770966124,168.802558865724,128.855869051894,109.866999059295,221.960113498877,-10.355306562204,12.6992061046849,0.0737679938591831,-2.70013922334105,130.117985979172
-0.597740919037518,-0.133067934987249,0.664272828427526,4.72928139766107,56.212298189609,33.4855287222463,-22.7340546313616,-1.40281721311065,9.03454153384031,-0.532672619951639,3.43056305833413,0.127795942127007,0.447505732560741,109.813159300435,-12.9956095369746,-0.0321903305522471,0.135202576353109,0.00316957210776545,0.00248045727309959,-0.231954388201614,2.41844943820223,0.0314998486440285,0.00652077138125679,-0.00224791557124282,0.00997627885103127,166.384200289604,126.886101552156,108.416691062004,204.916640395614,-10.5993294446067,12.6658820511405,0.162084839022882,-3.58949531219042,123.714123026726
-0.671541752730562,-0.126923169224089,0.657480832639656,4.6753015308257,57.9698568847121,35.0030990347116,-22.9742719461883,-1.36130180529655,8.96670869541778,-0.516908541180706,3.40480582109496,0.0974673436569364,0.787037289597262,104.612955665696,-14.5592810101923,-0.0323714613962376,0.133607020400497,0.00316957210776545,0.00258649548603074,-0.215414830555408,4.87531543071158,0.031146387934258,0.00659146352321089,-0.00226056430263679,0.00985854654492413,162.249977277981,123.718728251003,105.737390110244,187.277956035205,-10.7365142335204,12.4637979206739,0.218919632403085,-4.543784684865,116.190826938925
-0.749885972900759,-0.115915330737756,0.632516833111314,4.59257922678549,59.614960867128,36.4538594806425,-23.1681352484591,-1.31506818668246,8.81590962829107,-0.49935288066639,3.34754495102441,0.0686810298704519,-0.792196858302448,95.1667117921895,-15.636828916771,-0.0308317936141643,0.13045747787427,0.00316957210776545,0.00278281308427857,-0.0419279056792823,9.53245677902627,0.0304919959400986,0.00672234192204278,-0.00215304620255869,0.00962614923902694,155.510496915672,118.770860676045,101.154193153478,167.734461045263,-10.706237941439,12.0330876486415,0.256880058151517,-6.08179204890678,106.087137443686
-0.805485662654757,-0.0963101434866162,0.622002946981617,4.48532347052708,61.0451580152794,37.6996830309801,-23.3532857744676,-1.24933710216664,8.55468712299514,-0.474393713731399,3.24835449699672,0.0438032766768994,-3.23138114192497,80.7340646671576,-14.7304529866158,-0.0297435208372422,0.12546044810898,0.00316957210776545,0.0030052173293684,0.190024116480573,14.8747647191011,0.0297610356309763,0.00687850567139728,-0.00207704992420323,0.00925743021228857,145.238395147178,111.422667387394,93.9754408070472,146.520900545119,-10.4060826226139,11.3114161352711,0.281259702549242,-7.50367775702064,93.2154736456524
-0.859873626005902,-0.0834627178767568,0.642345332823814,4.37207669326226,62.2638623941827,38.689955523302,-23.581356593914,-1.18328657590486,8.13118338334388,-0.449313249545314,3.08754320636597,0.0241734110528207,-6.8287196797816,62.4780915679998,-11.5863759592005,-0.0276070936537865,0.115914442926768,0.00316957210776545,0.00318417350736303,0.583249864638416,19.4570912359552,0.0292847094855677,0.00708915757046956,-0.00192785891404191,0.00855305303117326,130.898570337592,101.385609017867,83.7329244488041,124.002698208663,-9.79859962607094,10.2784499361162,0.296111038021071,-8.74439016238974,77.2325703362514
-0.90297651756742,-0.0682028091583705,0.669131875465007,4.22571506660705,63.2561291215851,39.4225966741004,-23.8409376987401,-1.08710707575696,7.53589931322026,-0.412792321622127,2.86150411710708,0.00985032259604535,-11.6700319336747,41.3508198787477,-7.13988781722446,-0.0245410358945865,0.101868920416936,0.00316957210776545,0.00341441264979789,1.21972023785235,25.3816471910113,0.0286686016488898,0.00735768087038587,-0.0017137499297291,0.00751666709130356,113.39589464415,89.317725576787,71.0482865464004,101.112679808512,-8.94696120741237,9.0107954925307,0.301383048375666,-10.0058703858043,60.4029914070647
-0.90710555006955,-0.0702050228690222,0.705905971936953,4.07497192335471,64.0102808541707,39.8079074043936,-24.2098390370067,-0.985667088309718,6.73651647398585,-0.37427390070714,2.55796538993736,0.00144566581772343,-17.1804869499675,18.2042428169296,-0.866882154272272,-0.0199090149621401,0.0876975964298201,0.00316957210776545,0.00373475311170071,2.15852548278396,33.5795298876405,0.0277996403069855,0.00772235972862764,-0.0013902865852484,0.00647099855748403,93.8255050323443,76.0488482074305,56.640453505816,79.3593200407104,-7.88844434938312,7.59841110218527,0.289304351129913,-10.7648394192488,43.9240750642662
-0.859923435960225,-0.0825274542972937,0.743251495274163,3.90936648774876,64.5081544297089,39.8551254578358,-24.6603818198199,-0.866000415243505,5.81873170181637,-0.328834509411299,2.20946751396735,-0.00240105219865571,-22.5795772280634,-6.76430278456122,4.86157342945336,-0.0152848102513004,0.0768317443886313,0.00316957210776545,0.00397060132837124,2.95320247179353,39.8771922097379,0.0273295464662832,0.00811980270303958,-0.00106736906325404,0.00566923299324037,73.1250455070386,62.2291846526495,41.1852464525543,59.1086840335932,-6.67905926552048,6.09671666116912,0.241806162249543,-10.748616646487,28.1153814828569
-0.810438234088579,-0.10042443300661,0.82766888983415,3.76723921509723,64.7753880441107,39.5414230363984,-25.2418760883986,-0.702523987185798,4.88037468972691,-0.2667598382282,1.85315802231852,-0.00202614340747191,-27.6395575847288,-31.4575969561867,9.41740130121238,-0.00893633380916502,0.0591677114087671,0.00316957210776545,0.00399401698748198,3.27041573410903,41.5129893632959,0.0279563382538863,0.00867109457077226,-0.000624042175859029,0.00436584571028874,51.5969595600288,47.9952076504979,24.9739123365109,40.9695619424285,-5.34140181649702,4.56359804512397,0.165365792848112,-9.51262489471772,12.1772720003502
-0.769525700166932,-0.126570923255043,0.934095905218392,3.64711788312085,64.8189899627533,38.913229258338,-25.9135073743722,-0.558434155495093,3.89123821556616,-0.212046574491662,1.47756673910878,0.00245654967064522,-31.8798695624684,-51.5120223081046,13.8430094067457,-0.00154649612633796,0.0428991266650376,0.00316957210776545,0.00381060916326858,3.39565906778641,39.0639820973783,0.0298616428355206,0.00953222101533146,-0.000107994937101356,0.00316542525756601,29.5464245051601,33.5079415415907,8.27701271323942,25.806517454904,-3.91563299698407,3.04381440320339,0.0785233404862071,-7.71001207793986,-1.18800467747263
-0.751436010967639,-0.132506047687288,0.984438696980562,3.55603935203071,64.6965654502509,38.0125160062163,-26.6912794137411,-0.358519519550192,2.92373832121601,-0.136135720318924,1.11019121882724,0.00856758252369294,-34.7578915479858,-68.0772798142414,16.2641912799518,-0.00114732119762811,0.033267929709493,0.00316957210776545,0.00362809166829894,3.36787525679269,36.3561011235955,0.0316066881532791,0.0102743994729251,-8.0119748418835e-05,0.00245476197666243,8.96312738551587,20.0446386066516,-7.36886229677738,13.7372117306396,-2.55893288867309,1.65344354654555,0.00408250284201256,-4.30534654965683,-12.6183453410429
-0.72294474816061,-0.169926072733767,1.05509289962334,3.52818354419047,64.4381022067542,36.8976987643578,-27.5477840362959,-0.222306873554166,2.06828514967872,-0.0844135527156631,0.785361670208941,0.0143100737773246,-35.6929779158,-80.8947189520499,17.6574392437293,-0.00112081582117853,0.0372057912365177,0.00316957210776545,0.00340114674406596,3.14121534991872,32.8300647940076,0.0336793746327392,0.0111234174397692,-7.82688246345652e-05,0.00274532748014622,-7.63327569409012,9.36069041302177,-20.1557724249369,5.34590251374154,-1.43706356833518,0.59266832033662,-0.0497188468604256,-2.23501148488878,-21.5553011741424
-0.680795150636803,-0.18752176391798,1.10424501797594,3.50855765359427,63.9846705811821,35.620067650591,-28.3718392741801,-0.114067868669365,1.5505344807977,-0.0433134337735117,0.588763280413725,0.0192751325034318,-34.3415338597812,-90.4061717459696,18.2276119162151,-0.00178524488021711,0.0501368214223272,0.00316957210776545,0.00296800156697947,2.45975263547904,25.1261168539327,0.0370804323438807,0.01232215673356,-0.000124667243109171,0.00369947766311181,-20.656578318494,1.2900193122751,-30.5028325225114,-0.12182559533158,-0.512571591477276,-0.158593867396304,-0.0860355842728487,-0.686972693584097,-33.7965962501645
-0.613730008784513,-0.202028980858063,1.11888510176224,3.51094821448114,63.3590146130271,34.2530782785023,-29.1130060269911,-0.0433233461410386,1.29475756783174,-0.016450582498091,0.49164060678285,0.0234565578906414,-32.9404260958941,-94.734166155788,16.4234864894655,-0.00517621779093677,0.0552388364329369,0.00316957210776545,0.00256637404512188,1.76416938389987,17.8335805243446,0.0401449456008833,0.0133659787389376,-0.000361465706402278,0.00407594330319737,-30.9108972920162,-5.05155571948902,-38.663054456002,-3.48227881054121,0.245379280965456,-0.752148161616042,-0.118866075413833,0.430385338467408,-49.2054835553098
-0.603840141971921,-0.23160645380808,1.0632300416599,3.50455467094304,62.4287214583046,32.7957100069253,-29.6399133077273,-0.0733474400880032,1.26628381697562,-0.0278512216083999,0.480828658279061,0.0261251992922278,-28.5033726126504,-99.9362708731798,12.7559188260481,-0.0107062555840974,0.0727359553815134,0.00316957210776545,0.00225858722555601,1.24256632546516,12.3146112359551,0.0424900728289322,0.014163357609644,-0.000747639375685689,0.0053670143939196,-37.7936966961291,-9.1910202316225,-44.2573382082585,-5.11415031496602,0.790250027912493,-1.12267831377495,-0.142415244294532,-0.519982223572212,-65.7430316868221
-0.562794763958331,-0.230792105277837,0.974629967393666,3.47999507096192,61.3154180223644,31.2409713005351,-30.0817682904175,-0.156252270244788,1.48603532171607,-0.059331540407979,0.564271895697603,0.0261149356291552,-23.1660696781426,-107.880092830428,7.89268491789708,-0.0152972316009178,0.0953264162868073,0.00316957210776545,0.00197475026264713,0.727938975325613,7.12220112359553,0.0446188500507488,0.0148729500169162,-0.00106823647109801,0.00703391116056061,-39.1506394505422,-9.54617403520898,-45.821191251327,-4.84167109456766,0.978284280763961,-1.09363677090005,-0.134810617493075,-2.78597484711807,-83.015006324684
-0.5088552164643,-0.226688588161655,0.928744980811271,3.44464993053602,59.8761861697001,29.5627580185428,-30.3207172784255,-0.272740135544428,1.92627722671652,-0.103563886448374,0.731438941238123,0.0247779606724986,-16.817676723533,-115.755261289527,2.54623509309488,-0.0193956612193481,0.112288214948496,0.00316957210776545,0.00175857832226357,0.34924339814345,3.17706576779032,0.0462401396036255,0.0154133798678751,-0.0013544380601733,0.00828548223138191,-37.2224395678105,-7.77544099526126,-44.8650378661492,-3.47987499062809,0.925718383567778,-0.868017551405,-0.123532224836363,-5.41681223727895,-103.401962672678
-0.484428412365209,-0.210642381224453,0.844299323935293,3.32832294251769,58.091688864515,27.7516556466579,-30.3475463800874,-0.443600509377864,2.54518892819031,-0.168442362507246,0.966449828231544,0.0229587436097022,-10.1936816405979,-125.415512968414,-2.09920712984828,-0.0217972394276628,0.117322820106101,0.00316957210776545,0.00167987321711569,0.217228864474843,1.76012756554306,0.0468304278922346,0.0156101426307448,-0.00152214510006424,0.00865697385759123,-34.2065719882518,-5.52134541661127,-42.854052611466,-1.93930688692307,0.764178766839759,-0.613068655460372,-0.108374811180544,-7.91549668061946,-125.875865997692
-0.452064166745715,-0.191117099180245,0.779123222420317,3.18655038022805,56.0711788951863,25.7768565936664,-30.3017278438615,-0.59812460167534,2.8995456918606,-0.227117685507616,1.1010048821172,0.0204961503500261,-5.6416773076302,-137.029901849319,-6.13304728717792,-0.0247053022227685,0.129837504918937,0.00316957210776545,0.00163606901832297,0.129984984207528,0.9651002247191,0.04715895938318,0.0157196531277266,-0.00172522097804131,0.00958040289861447,-30.2019911594822,-2.90944471939976,-39.8026207890122,-0.495859581523844,0.49304225563047,-0.338044934106505,-0.0916149977551086,-9.5660002440909,-143.757609620903
-0.434477240192576,-0.166064328249991,0.703398570746841,3.04338972809364,53.7133350654671,23.6163385329361,-30.1044726641851,-0.709586870304495,3.09161038104422,-0.269441730366454,1.1739349832248,0.0177003678834635,-1.06860399995793,-150.390594804931,-8.81885552801216,-0.023361868161145,0.124388191801598,0.00316957210776545,0.0016200430919354,0.0904566563440961,0.667304494382029,0.0472791538310868,0.0157597179436956,-0.00163140627361758,0.00917831095131915,-25.8502037784102,-0.26515937715067,-36.2925493963853,0.655786947748064,0.172233782491395,-0.0712687811893707,-0.0758760840371526,-10.0602467014173,-160.624607931854
-0.415501913983017,-0.141494426158541,0.663429946731485,2.89557112490077,51.2258794278603,21.2246692632189,-30.0086784815032,-0.755868693905604,3.00712112502845,-0.287015695102085,1.14185303203467,0.0147676971229311,1.66896972579951,-164.910900146827,-9.91046983723129,-0.0231293982988449,0.114620346975157,0.00316957210776545,0.00160615395573283,0.0548222159661204,0.404426966292151,0.0473833223526061,0.015794440784202,-0.00161517243524612,0.00845756474669305,-22.150429842499,1.81768561982484,-33.1431239154806,1.20400654023379,-0.124566851236198,0.111284837216657,-0.062610691265476,-8.83028217577544,-171.085527812197
-0.372418530563307,-0.125647924103433,0.683534747845891,2.77809254316846,48.6503430963399,18.6545946321765,-30.0033278456985,-0.766847586696767,2.68333920715567,-0.291184560106435,1.01890774673708,0.0120874312124741,2.40430761177442,-177.643440899088,-8.81933747705743,-0.0242936642744418,0.10982634011281,0.00316957210776545,0.00159226481953026,0.0191877755881395,0.141549438202234,0.0474874908741253,0.0158291636247084,-0.0016964754716149,0.00810382630055857,-20.4643345040181,2.48248336512692,-31.423422765649,0.988411929561336,-0.300007482350769,0.128342262341934,-0.0581545080696857,-7.19492478760379,-176.890194728683
-0.365394951597712,-0.0944060782772698,0.703189879529642,2.68894309510676,45.9279848772192,15.876152293271,-30.0592726103488,-0.781401343239416,2.38075738708168,-0.29671085929585,0.90401248501503,0.00949199951143181,1.93168126373417,-186.473516616137,-5.37242984742051,-0.0241229460507149,0.0992993005994641,0.00316957210776545,0.00158478605388272,0,0,0.0475435816164819,0.0158478605388272,-0.00168455387445119,0.0073270609126958,-21.2687403275028,1.47937822950922,-31.5579192552552,0.0596752396956735,-0.306332851645095,-0.0310071736373702,-0.0580166382984611,-5.8278638609018,-181.844437393342
-0.347124405386753,-0.0797808286507009,0.742393146173093,2.60996415243967,43.1687696967174,13.0750595171058,-30.1011575785029,-0.800859401995566,2.00378021444063,-0.304099402179373,0.760868092191822,0.00670178904739241,-0.489259197255843,-191.26310780168,-0.692247113905525,-0.0242539336840272,0.0894052592224701,0.00316957210776545,0.00158478605388272,0,0,0.0475435816164819,0.0158478605388272,-0.00169370100452136,0.00659700296259621,-23.836660665835,-0.65464214646036,-33.0554866488488,-1.27713299980663,-0.192686959529533,-0.297731713573979,-0.0638122383420235,-4.47934847051022,-183.453314737397
-0.333050309954165,-0.0925131963949988,0.785407377297182,2.55474637561878,40.4041568519262,10.1899681899073,-30.2213525162293,-0.839719249892153,1.58894074832446,-0.318855121453801,0.603346767809549,0.00336237802499564,-2.49863876322027,-194.037208948126,4.14308823480261,-0.0251650199758137,0.0824032074567928,0.00316957210776545,0.00158478605388272,0,0,0.0475435816164819,0.0158478605388272,-0.00175732399400041,0.00608033809697032,-26.9630732151363,-2.89181946841588,-35.2397243556887,-2.73184393086185,-0.0129663755765573,-0.559813365824244,-0.0770757404687476,-3.36377184656213,-182.50524293601
-0.282664738541144,-0.0915721429026611,0.836547114703502,2.51530217739428,37.7171677174301,7.30648320077701,-30.4174632662935,-0.881706059885115,1.22659211545432,-0.334798199335466,0.465757070589596,-0.000270077058506202,-3.98182542698427,-192.792678302143,9.31303914268028,-0.0253590520501335,0.0741194393071476,0.00316957210776545,0.00158478605388272,0,0,0.0475435816164819,0.0158478605388272,-0.0017708736442743,0.00546909840592835,-30.2203326912262,-4.92613169713952,-37.8118726542196,-4.04333887609638,0.215351813261219,-0.771089393850531,-0.0846591363703251,-2.74464679725501,-180.956858599199
-0.217729011308359,-0.0957455527214481,0.899712618474221,2.47302044112869,35.0749239819726,4.54280665687516,-30.5390617512167,-0.909651592049969,0.916708584252709,-0.345409574570296,0.348089229831494,-0.0039583874335599,-5.45741100695253,-186.139813890744,13.0212967020281,-0.0252055123181292,0.0655433600782999,0.00316957210776545,0.00158478605388272,0,0,0.0475435816164819,0.0158478605388272,-0.00176015165576235,0.00483628977059531,-34.1048847939254,-7.26241753859129,-40.96917308015,-5.16775967131625,0.507334139547406,-1.00048307793553,-0.0923587176152577,-2.19951141570145,-179.008357032446
-0.202686814373338,-0.107882174485986,0.919370015992567,2.45345990586216,32.5187603607932,1.88011696636464,-30.6452783493367,-0.930522482857405,0.624070048938704,-0.353334592871483,0.236969595820968,-0.00751380578602573,-6.0999810688091,-177.927938373068,15.1886530075326,-0.0252801210211054,0.0577709337985718,0.00316957210776545,0.00158478605388272,0,0,0.0475435816164819,0.0158478605388272,-0.0017653617316545,0.00426278078868701,-37.3179443364441,-9.10002774157779,-43.6755152589057,-5.8786330382254,0.762166303016351,-1.17422735940782,-0.107147930160388,-1.74779453282048,-176.043950498874
-0.162596693980836,-0.125389103787172,0.923207099349614,2.43490644761045,29.9241151270722,-0.624226777133999,-30.5555124284706,-0.950791027106644,0.37705715944857,-0.361030890341277,0.143174765121128,-0.010209117178245,-5.46940543507735,-168.541138307155,13.8423505678101,-0.0253799458469889,0.050362586883855,0.00316957210776545,0.00158478605388272,0,0,0.0475435816164819,0.0158478605388272,-0.0017723327001612,0.00371613636341092,-38.7698927196772,-9.67835092431726,-45.1505571716002,-5.89752348180741,0.915351874384338,-1.2053326108107,-0.115647469218481,-1.2586078870588,-170.868953469527
-0.119142206202043,-0.128380904186722,0.924303957919931,2.41752617107274,27.4683117492691,-2.97371789085713,-30.4492179453796,-0.959812403274094,0.141756696384626,-0.364456454294851,0.0538273341338961,-0.0121911171639346,-3.70961831918762,-159.460930756731,11.7591267829982,-0.0254951117972759,0.0439721061680514,0.00316957210776545,0.00158478605388272,0,0,0.0475435816164819,0.0158478605388272,-0.00178037497026175,0.0032445978814334,-39.020719208534,-9.55382222277598,-45.6298080954852,-5.52956974182283,0.985907137201742,-1.15492814880966,-0.119920401712174,-0.954382224581087,-163.994098079474
-0.0576956748141127,-0.119868538956474,0.912974756387002,2.40403689408107,25.1628456448411,-5.18376105414162,-30.3541457322371,-0.963396646559476,-0.0443173748676022,-0.365817450042212,-0.0168280314494848,-0.0135430044786446,-1.83528315712012,-149.009629784326,7.80527147344529,-0.0253495865184565,0.0383861036843913,0.00316957210776545,0.00158478605388272,0,0,0.0475435816164819,0.0158478605388272,-0.00177021264714622,0.00283241994856618,-38.8351587598792,-9.31553396427235,-45.6056742508612,-4.89451808013531,1.00949836855093,-1.11073759739975,-0.123591506976589,-0.919473474146169,-156.134248628667
-0.0195017323370167,-0.131487008870741,0.903119212531089,2.39467818324734,22.9686743687823,-7.20140387525593,-30.1773887168746,-0.964689910362295,-0.18113449328907,-0.366308523442009,-0.0687797271106704,-0.0143233298469926,-0.416045788468648,-137.534321107302,3.10713171985797,-0.0253744930454757,0.0337158366860508,0.00316957210776545,0.00158478605388272,0,0,0.0475435816164819,0.0158478605388272,-0.0017719519200568,0.00248781197480591,-38.2093236856143,-8.85819671987007,-45.1779470454293,-4.10888421027661,0.988003822098732,-1.06904773748316,-0.128325677085311,-0.703450305834553,-146.575225327333
0.0138591273531925,-0.128703122102674,0.877543610259661,2.38626087181148,20.9271492154657,-9.05543196615419,-29.9900659046138,-0.971127619171272,-0.26067104488702,-0.368753026678578,-0.0989810554987453,-0.0146832435270419,1.67279632301988,-125.555945130892,0.600957913669839,-0.0252981667379668,0.0298525598066627,0.00316957210776545,0.00158478605388272,0,0,0.0475435816164819,0.0158478605388272,-0.00176662190038316,0.00220274989635217,-37.4864195722919,-8.39197989412879,-44.6218230698147,-3.22935245423098,0.946896150091159,-1.01654854323869,-0.125107625422955,-0.727769316162143,-136.048556438167
0.0420740242885718,-0.119914805137636,0.863431940515714,2.3775500026915,19.0296924046721,-10.7290652868823,-29.765657503579,-0.975917687882746,-0.303034594931631,-0.370571894045219,-0.115067187734517,-0.0146789960553791,3.34562841146855,-113.404838960821,-1.73637566001892,-0.0253561089435521,0.0266274975355244,0.00316957210776545,0.00158478605388272,0,0,0.0475435816164819,0.0158478605388272,-0.00177066812121819,0.0019647801668051,-36.7734021500133,-8.06169146405028,-43.9437525910984,-2.28040244194676,0.890529394834554,-0.986200883144884,-0.120565745842882,-0.376800955966682,-125.277437977782
0.0566522380881086,-0.128005064836572,0.849185717906487,2.37344763457689,17.3261025277391,-12.1958219093948,-29.5288881240891,-0.97901750377021,-0.321100755291799,-0.371748944793322,-0.121927204051382,-0.0144757080146178,4.39731316941804,-101.635609002574,-3.01619668242202,-0.025477661603878,0.0240584645672769,0.00316957210776545,0.00158478605388272,0,0,0.0475435816164819,0.0158478605388272,-0.00177915638813515,0.00177521729041587,-35.9867414079881,-7.7309711102262,-43.1619666545641,-1.38965945536712,0.824913274928995,-0.961976308819658,-0.117169354210361,-0.226141283659114,-114.242234126004
0.0726673241394623,-0.127564029034817,0.832237984608346,2.37272068802866,15.7992772763601,-13.5123474318529,-29.3185080417949,-0.982501390377052,-0.315358411895426,-0.373071833469863,-0.119746742425291,-0.0140669646270338,5.23385351760906,-90.0096796582323,-3.75045189185113,-0.0255078193283209,0.0221522245861445,0.00316957210776545,0.00158478605388272,0,0,0.0475435816164819,0.0158478605388272,-0.0017812623627308,0.00163456034347209,-34.9933771720575,-7.22924512872518,-42.2588634612355,-0.546354864933353,0.752472104288107,-0.919936072933138,-0.111905292901624,-0.121134758358513,-103.105723516096
0.0863848368282365,-0.132941982165905,0.822000344328008,2.3717049476977,14.4910507869541,-14.6447152588297,-29.1423900211736,-0.984602438925784,-0.288457250771612,-0.373869635938096,-0.10953193194133,-0.0135442461011321,6.37612239058488,-78.7524451686267,-3.69908094143601,-0.0255767897118768,0.0209171264270107,0.00316957210776545,0.00158478605388272,0,0,0.0475435816164819,0.0158478605388272,-0.0017860787034297,0.00154342536678545,-33.8655994459273,-6.60221781267519,-41.29097222165,0.18399379800121,0.66810290978449,-0.860070028591752,-0.105929112432207,-0.078670150130432,-92.1913698423779
0.109931849093022,-0.135723656445761,0.816435493417024,2.36851835900898,13.2440810092711,-15.6097278643024,-28.861323699869,-0.986230001546916,-0.234795018865525,-0.374487648062149,-0.0891555055653776,-0.0129945361788666,7.64319357227786,-66.9676851739545,-4.21397901926235,-0.0254078978549567,0.0201167412661044,0.00316957210776545,0.00158478605388272,0,0,0.0475435816164819,0.0158478605388272,-0.00177428464513599,0.00148436683573664,-32.7108094106916,-5.95385780292006,-40.3062125018814,0.787207870224511,0.580482405526188,-0.798734099898039,-0.10328088939587,-0.295227766078417,-80.8132546295251
0.121202937193363,-0.142467073346614,0.819932636178153,2.36341083926687,12.2575206005048,-16.4006721925228,-28.6649437244131,-0.982610461246921,-0.17130153454623,-0.373113249461533,-0.0650459919907466,-0.0125895709710139,8.03963282614067,-56.6666760118364,-4.45922875365846,-0.0253155009663858,0.019765362217546,0.00316957210776545,0.00158478605388272,0,0,0.0475435816164819,0.0158478605388272,-0.00176783238444188,0.00145843940546584,-31.5960574537426,-5.28903455884887,-39.3945384097534,1.17600024901022,0.502227331591063,-0.738560416228127,-0.0999081681462087,-0.271522907823033,-70.582617998156
0.1394252814888,-0.144863333241075,0.817111988869043,2.36148618837484,11.377576490621,-17.0593307960681,-28.4422499259817,-0.976901444498953,-0.0926744423534255,-0.370945442508449,-0.0351900002007337,-0.012235776398108,9.05951461468886,-46.2915964572019,-4.24241162220786,-0.0253659648642493,0.0197899689042343,0.00316957210776545,0.00158478605388272,0,0,0.0475435816164819,0.0158478605388272,-0.00177135637999727,0.00146025507477203,-30.6431901749627,-4.72741640130355,-38.6085987385067,1.48060627951808,0.426913559186503,-0.687699725025994,-0.0976722665773932,-0.201347502771347,-60.7985517854358
0.159314683956049,-0.147330440476659,0.826881192758778,2.35788260763536,10.6169663043532,-17.5685971264227,-28.1931621711329,-0.976118252243692,-0.0064624516017816,-0.370648051610592,-0.00245389847933108,-0.012172605875482,9.8638736864536,-35.4547009369016,-4.03652041272999,-0.025320191297979,0.0198834724878413,0.00316957210776545,0.00158478605388272,0,0,0.0475435816164819,0.0158478605388272,-0.00176815991973716,0.00146715448341346,-30.0291180307516,-4.47463373044936,-37.992952254742,1.60405387439272,0.361939275272621,-0.67101355132749,-0.100007463516872,-0.245571030616089,-51.8010545999045
0.154198136960225,-0.151990214101905,0.830627691390904,2.3529986377881,10.0212036216957,-17.9101383660672,-27.9386740355535,-0.975514900706787,0.0851973145501653,-0.370418949172362,0.0323508125863729,-0.012092333795206,10.1897884772536,-25.0453879881382,-3.96622592131466,-0.0252216803597772,0.0202275357785492,0.00316957210776545,0.00158478605388272,0,0,0.0475435816164819,0.0158478605388272,-0.0017612807026517,0.0014925421011874,-29.356124574281,-4.22590256817147,-37.2899269434909,1.62100851317845,0.288779950965424,-0.659498516052194,-0.104238933507536,-0.318495149008102,-44.112799969588
0.163112907560126,-0.156359098499001,0.841802055903019,2.34926337661221,9.46208978264162,-18.1072985902961,-27.5765205108349,-0.972920234356254,0.178312919541263,-0.369433711958332,0.0677083294498887,-0.0117125537669081,10.5757052395437,-15.4234909433304,-4.84951248517712,-0.0251588340448105,0.0205348431429763,0.00316957210776545,0.00158478605388272,0,0,0.0475435816164819,0.0158478605388272,-0.00175689201798816,0.00151521758595401,-28.1735344121523,-3.69941894200889,-36.143975523642,1.5845370446629,0.181629542074469,-0.619383431886447,-0.108309990527573,-0.306102545368344,-36.9590318889071
0.163540077769091,-0.160171661751172,0.856528027990981,2.34487349157795,9.0351562147322,-18.1800239672074,-27.2228903097363,-0.969390595472121,0.263373402721223,-0.368093450394443,0.100007184928965,-0.0112369887547472,10.7890591888915,-7.21323128287764,-6.13210356685947,-0.0251565092741821,0.0207955977696178,0.00316957210776545,0.00158478605388272,0,0,0.0475435816164819,0.0158478605388272,-0.00175672967457616,0.00153445805412584,-26.7223006873721,-2.91142312828334,-34.8796169216101,1.45423079256367,0.0568828716013509,-0.556861050258497,-0.109175963574475,-0.293761210547028,-31.4430253261927
0.159470819810381,-0.16462571496375,0.873914551516688,2.33829066699162,8.68053751974766,-18.1333805530542,-26.8217206177385,-0.96675629495962,0.338073641137819,-0.367093163441432,0.128372086169482,-0.0108648244059242,10.8640064291097,-0.3697433621623,-6.44862083183908,-0.0250008910813567,0.0209739750167191,0.00316957210776545,0.00158478605388272,0,0,0.0475435816164819,0.0158478605388272,-0.00174586254296181,0.00154762008998168,-25.1777697222719,-2.03077063714988,-33.5759727743937,1.16867807224407,-0.0687997971839957,-0.489525081995578,-0.10710313938413,-0.407073669230187,-27.0494524289534
0.150453390947275,-0.172034614680549,0.899397320901787,2.33032152570114,8.3653721822678,-17.9984355167523,-26.3710931717558,-0.967671379675163,0.400159906013411,-0.367440636061778,0.151947255525266,-0.0105712954034964,11.0635453286964,5.21141429591329,-7.15461881553309,-0.0248876290260597,0.0210504120267952,0.00316957210776545,0.00158478605388272,0,0,0.0475435816164819,0.0158478605388272,-0.00173795322568034,0.0015532601964621,-23.6372378655255,-1.08035152287354,-32.3477508435915,0.799047658336541,-0.186702614227646,-0.408382282497814,-0.104925905971621,-0.482110422275141,-23.3667782642539
0.137521528832268,-0.172841295232186,0.923763065819939,2.32069903539402,8.08462502364692,-17.7585406031287,-25.8498326799408,-0.963402797615669,0.452754482657975,-0.365819785698766,0.171918275751333,-0.0103544551105433,11.2265951752915,9.40423856866781,-7.60918545932774,-0.0247151585545794,0.021077571908854,0.00316957210776545,0.00158478605388272,0,0,0.0475435816164819,0.0158478605388272,-0.0017259092655293,0.00155526426002574,-21.9298996887873,0.038306029811764,-31.0518675911763,0.293206280856611,-0.310140219099892,-0.307431844193186,-0.102667209076098,-0.543102987096532,-20.2214142485467
0.134933102454621,-0.174386584223112,0.951272058515848,2.31419070473445,7.85806631456367,-17.4402572983143,-25.3056180963205,-0.953568887405183,0.494269284537235,-0.362085689291029,0.187682124438906,-0.010457779144445,11.1521081376078,12.6598135110395,-7.3325698081832,-0.0247272925575165,0.0210652730223264,0.00316957210776545,0.00158478605388272,0,0,0.0475435816164819,0.0158478605388272,-0.00172675660737624,0.00155435675423062,-20.490487645707,0.887539072817131,-29.8654646010143,-0.348261498056274,-0.418700489058463,-0.228248992826875,-0.0983219039614413,-0.376984786025062,-17.8378363247162
0.126575665785242,-0.175773828821562,0.970933690525848,2.30901697445152,7.6507166563857,-17.0699077667222,-24.7290942170387,-0.948018832980088,0.527128018644289,-0.359978242929621,0.200159122740265,-0.0105644642147756,11.1038241077418,15.143482236431,-6.79849388176472,-0.0247345879115988,0.0209814784051959,0.00316957210776545,0.00158478605388272,0,0,0.0475435816164819,0.0158478605388272,-0.00172726605663501,0.0015481737472994,-19.3483352620385,1.5879490132451,-28.9506271501616,-0.89967534702206,-0.507152192681157,-0.162933971953215,-0.0909371085049134,-0.311253022103288,-15.7943783291315
0.128713511379619,-0.175258391663446,0.993397083772419,2.30382376653791,7.49362968465631,-16.6738618922585,-24.1749211542636,-0.944576813083059,0.549343983795086,-0.358671251726961,0.208594887750154,-0.0108278484240715,10.9601479810679,17.1007249343253,-5.41343242889728,-0.0246772493849352,0.0209754241853608,0.00316957210776545,0.00158478605388272,0,0,0.0475435816164819,0.0158478605388272,-0.00172326199191408,0.00154772702071379,-18.5156266455998,2.1048328192923,-28.2898831373362,-1.45099761733675,-0.572008198558415,-0.117451279037023,-0.0831066151308318,-0.352129473115101,-14.0431140729262
0.129014875876372,-0.176639357685384,1.01268740293131,2.29731524036145,7.33129571969123,-16.2765150738266,-23.6151881024447,-0.943842506626305,0.567379345133886,-0.358392423565665,0.215443209175303,-0.0112776108487859,10.6587987148792,19.7528911561421,-3.34327131929511,-0.0245745242516482,0.0209131533728144,0.00316957210776545,0.00158478605388272,0,0,0.0475435816164819,0.0158478605388272,-0.001716088489104,0.001543132204498,-18.1676440270508,2.29798130627507,-27.9909098856968,-1.96793445707701,-0.602925104484175,-0.110250157280336,-0.0800431609111971,-0.370319020114645,-12.6116671964046
0.128530334971309,-0.176631343990479,1.02627538904977,2.29124977919361,7.17306356325979,-15.8619674523221,-23.042752784227,-0.940929837358897,0.5810397411142,-0.357286435447453,0.22063028476035,-0.0117062417115907,10.4529552532385,22.3419002314169,-1.20253853612396,-0.0245430325758669,0.0207466838221453,0.00316957210776545,0.00158478605388272,0,0,0.0475435816164819,0.0158478605388272,-0.00171388936200159,0.00153084880944387,-17.9903597457873,2.38811236146362,-27.830323105927,-2.42135149271423,-0.612694169376271,-0.119734312247776,-0.0774877330690999,-0.327316164303164,-11.4128962323782
0.13102892088977,-0.176994516474966,1.03989965950349,2.28670528646779,7.0537909836019,-15.4536300723923,-22.5149723616636,-0.937986576968445,0.591578085840311,-0.356168831379917,0.224631866465185,-0.0117632949587286,10.2247244937045,25.3688040745118,1.05149612422177,-0.0244474925809238,0.0206508939443868,0.00316957210776545,0.00158478605388272,0,0,0.0475435816164819,0.0158478605388272,-0.00170721761186343,0.0015237807005557,-18.1197871247354,2.31883057493638,-27.9440792740505,-2.54546697493713,-0.604727988490873,-0.136847194537882,-0.0785116807337216,-0.414601024034303,-10.3555989159379
0.128061264876213,-0.175888737872639,1.04148207556078,2.27739519897447,6.90612999395636,-14.956014626836,-21.869651856386,-0.936427910174628,0.597304221717266,-0.355576980127356,0.226806173831298,-0.0130726297577765,9.92997786469908,28.6482719642221,3.14491816707106,-0.0244443965982814,0.0204797294950921,0.00316957210776545,0.00158478605388272,0,0,0.0475435816164819,0.0158478605388272,-0.0017070014131643,0.00151115088001821,-18.3412392758526,2.11069912082147,-28.0491284554624,-3.47640754977347,-0.582555114491184,-0.179822269760572,-0.0824868480255183,-0.213835162832963,-9.30348460378085
0.12395480570144,-0.173205333294403,1.05159789316434,2.28077321842588,6.83914907028622,-14.523713472866,-21.3703755747294,-0.935009446854297,0.607469644915241,-0.355038366424812,0.230666151137804,-0.0114716815827462,9.52606628409021,32.5504708060984,4.45015960611762,-0.0243744596428286,0.0204740549092544,0.00316957210776545,0.00158478605388272,0,0,0.0475435816164819,0.0158478605388272,-0.00170211757480444,0.00151073216572882,-18.8891458646398,1.88020469226982,-28.5934909556871,-2.44210434129798,-0.564209533946647,-0.199787361743561,-0.0871529839064779,-0.414859864955291,-8.55943470967984
0.124782903480592,-0.171984013386978,1.03722933259315,2.26423147500423,6.69562193623625,-13.8688456730124,-20.5717138213509,-0.929309416133288,0.603829969921757,-0.352873971613009,0.229284107065039,-0.0144373087730472,8.79757789926505,34.9425392976405,5.95963987056806,-0.0244793163420506,0.0201862588476125,0.00316957210776545,0.00158478605388272,0,0,0.0475435816164819,0.0158478605388272,-0.00170943992915391,0.00148949637392209,-19.0789232857388,1.60864650526202,-28.5903185714297,-4.49466464890092,-0.522565420681151,-0.268043519227923,-0.0932030929144808,0.0569277318663022,-7.92298981219008
0.131041365896109,-0.171879975513785,1.06577652353268,2.28400077378912,6.69339922240892,-13.4975382292606,-20.1983998915453,-0.932743812508724,0.618467864329483,-0.35417806803994,0.234842354776763,-0.00858608937106715,8.48927474349711,39.2222182659551,6.05994491950389,-0.0242991408908569,0.0204131472904015,0.00316957210776545,0.00158478605388272,0,0,0.0475435816164819,0.0158478605388272,-0.00169685791476184,0.00150623793635672,-20.3136052173616,1.11447660332509,-29.8422526024108,-0.589908800676244,-0.471183079324112,-0.276018307061479,-0.0959511128550497,-0.586124938250752,-7.15845738937538
0.247846854533868,-0.207816742527278,1.1813947641411,2.24793139021964,6.43984533740263,-12.6283703909732,-19.0755359672336,-0.925035145030503,0.599902764630245,-0.351250961027292,0.227792883039438,-0.0115988483524103,6.68606065241046,32.8743311485613,7.09262507212344,-0.024642475102614,0.019740027158803,0.00316957210776545,0.00158478605388272,0,0,0.0475435816164819,0.0158478605388272,-0.00172083363379015,0.00145656999130565,-21.2390552721627,0.152563374413974,-30.1891233922982,-2.59927558326336,-0.211608457924224,-0.461707847066929,-0.107327871784628,0.542167554949592,-6.85901719108019
0.711965298219292,-0.356487567876061,1.89913958185522,2.28165773290428,6.6097250715146,-12.7339879625134,-19.3509494973151,-0.908726968743343,0.615500389734113,-0.345058479991041,0.233715556179923,0.0347593515388998,3.44659969384738,24.7795307381571,12.9017368422795,-0.0231815956376121,0.0199763310498054,0.00316957210776545,0.00165743692017308,0,0,0.0460905642906747,0.014976050143343,-0.00161881748046869,0.00147400629743097,-27.4481741226117,-2.27551000942667,-36.542070097149,28.261809361593,0.243590992659088,-0.262936610160102,-0.131380107539653,-4.11333816291792,-8.56232863087663
1.04350675434495,-0.343976294310068,1.9570999711678,2.0424121277104,6.03775314115548,-11.6025964347736,-17.6471501355363,-0.76669061940424,0.54193306940747,-0.291124957060382,0.20578084245174,0.119541260652119,5.1466155783214,20.4556128428701,20.9669826374808,-0.0157858571007374,0.0174085122448196,0.00316957210776545,0.0020060008191029,0,0,0.0391192863120783,0.0107932833561851,-0.00110235817319635,0.00128453301128178,-34.1868689458673,-5.84275468105186,-42.5047790372652,82.5601196264414,0.748577963682704,0.242909144741151,-0.068882719864583,-14.1015282172973,-11.0087368241398
0.762246236826703,-0.394523417309041,1.11335135512029,1.84843788800749,6.70252472274181,-12.7863195002984,-19.4966252623795,-0.579096384160314,0.61272817360903,-0.219892360367597,0.232662900415067,0.267700462702013,11.2302129513511,32.3048054106522,17.2431923278487,-0.000942756537588831,0.0189349297052269,0.00316957210776545,0.00237717908082409,0,0,0.0316957210776545,0.00633914421553091,-6.58345864854425e-05,0.00139716375130803,-40.122512625979,-5.80058366701815,-50.9412178451271,179.028786751472,0.341414119440635,1.7888027063209,0.102888678848195,-33.8603656014575,-11.8238422880947
