accel_x,accel_y,accel_z,angle_ankle,angle_knee,angle_shank,angle_thigh,current_ankle,current_knee,current_qaxis_ankle,current_qaxis_knee,ground_reaction_force_vertical,gyro_x,gyro_y,gyro_z,impedance_current_desired_ankle,impedance_current_desired_knee,impedance_damping_ankle,impedance_damping_knee,impedance_equilibrium_angle_ankle,impedance_equilibrium_angle_knee,impedance_stiffness_ankle,impedance_stiffness_knee,impedance_torque_desired_ankle,impedance_torque_desired_knee,loadcell_force_sagittal,loadcell_force_x,loadcell_force_y,loadcell_force_z,loadcell_moment_x,loadcell_moment_y,loadcell_moment_z,velocity_ankle,velocity_knee
0.24965,-0.16889,0.33943,-0.14323,0.054666,-10.715,-10.774,0.20209,-0.1262,0.076735,-0.04792,0.20011,9.5272,26.498,-13.699,0.0116,-0.0021044,0.0027243,0.0046116,0,0,0.05528,0.045034,0.00081006,-0.00015528,-30.913,-11.396,-32.321,131.92,1.5469,-0.73347,-0.17555,-29.37,-2.7006
0.59236,-0.20629,0.77579,-0.94126,0.068734,-21.287,-21.364,0.76224,-0.24941,0.28943,-0.094706,0.39945,16.176,53.425,-47.704,0.041561,-0.0030604,0.0027243,0.0046116,0,0,0.055281,0.045034,0.0029023,-0.00022582,-57.519,-24.417,-56.927,287.78,1.571,-1.4475,-0.42581,-67.811,-4.2133
0.48671,0.0067405,0.80976,-1.9712,0.0065526,-17.997,-18.01,1.3963,-0.16264,0.5302,-0.061759,0.40824,9.5557,48.334,-60.115,0.061015,-0.0024304,0.0027243,0.0046116,0,0,0.055281,0.045034,0.0042608,-0.00017933,-45.616,-27.008,-37.503,280.52,-1.0911,-1.9578,-0.48317,-68.008,-2.6548
0.28025,0.0030704,0.89506,-3.0437,-0.023039,-18.617,-18.601,2.2691,-0.11581,0.8616,-0.043976,0.47097,7.9886,53.898,-61.834,0.074432,-0.0024654,0.0027243,0.0046116,0,0,0.055281,0.045034,0.0051978,-0.00018191,-47.258,-34.081,-32.752,323.55,-2.8856,-2.686,-0.6893,-72.254,-2.3366
0.1655,-0.02929,0.92038,-4.04,-0.056549,-16.825,-16.775,3.0952,-0.072597,1.1753,-0.027566,0.50756,5.8037,52.715,-52.772,0.083725,-0.0021466,0.002724,0.0046117,0,0,0.055282,0.045036,0.0058467,-0.0001584,-41.715,-35.053,-23.94,340.85,-4.4239,-2.4509,-0.99927,-67.239,-1.5255
0.12668,-0.068319,0.97244,-5.0564,-0.074445,-16.32,-16.253,3.9426,-0.063983,1.4971,-0.024295,0.56996,6.3362,54.481,-41.051,0.093563,-0.0020763,0.0026951,0.0046394,0,0,0.055282,0.04552,0.0065337,-0.0001532,-40.629,-35.336,-22.122,379.52,-5.2285,-1.8413,-1.4116,-65.012,-1.273
0.09274,-0.069775,0.97669,-5.9562,-0.09379,-14.947,-14.861,4.617,-0.050699,1.7532,-0.019251,0.61609,6.5381,53.403,-30.277,0.10184,-0.0019536,0.0026192,0.0047016,0,0,0.055283,0.046613,0.0071118,-0.00014415,-37.76,-33.84,-19.561,404.8,-5.701,-1.1459,-1.73,-60.121,-0.9681
0.089114,-0.073676,1.0011,-6.826,-0.10765,-14.137,-14.037,5.2111,-0.046699,1.9787,-0.017733,0.67243,7.3725,53.453,-22.196,0.10929,-0.0019595,0.0025586,0.004749,0,0,0.055288,0.047447,0.0076321,-0.00014459,-37.607,-33.633,-19.552,438.72,-5.8936,-0.72596,-1.9754,-54.054,-0.90625
0.085291,-0.079012,1.0189,-7.5319,-0.1212,-13.079,-12.965,5.6576,-0.04148,2.1483,-0.01575,0.72552,7.7641,52.716,-16.473,0.11329,-0.0018974,0.0025461,0.0047544,0,0,0.055295,0.047544,0.0079116,-0.00014001,-37.897,-34.427,-19.167,469.87,-5.9864,-0.64048,-2.1207,-45.455,-0.79264
0.048279,-0.080722,1.0555,-8.0984,-0.1334,-12.228,-12.102,5.9768,-0.041229,2.2695,-0.015655,0.79187,8.2763,52.458,-13.072,0.11517,-0.0020036,0.0025461,0.0047544,0,0,0.055302,0.047544,0.0080426,-0.00014784,-40.201,-36.998,-19.855,510.27,-5.9198,-0.93027,-2.2129,-36.118,-0.79736
-0.013151,-0.079349,1.0591,-8.5243,-0.14599,-11.32,-11.181,6.1563,-0.043234,2.3377,-0.016417,0.86747,8.6102,51.283,-10.102,0.11504,-0.0021092,0.0025461,0.0047544,0,0,0.05531,0.047544,0.0080333,-0.00015564,-43.833,-41.025,-20.964,556.4,-5.5697,-1.7007,-2.2799,-24.142,-0.7822
-0.0062683,-0.070654,1.0557,-8.7379,-0.1589,-10.464,-10.312,6.1657,-0.047785,2.3412,-0.018145,0.95015,8.6077,49.587,-7.7092,0.11152,-0.0022777,0.0025461,0.0047544,0,0,0.055317,0.047544,0.0077877,-0.00016806,-50.124,-47.153,-23.734,607.36,-4.7336,-3.1188,-2.3246,-10.515,-0.83889
0.0065455,-0.045944,1.0488,-8.7737,-0.17375,-9.6452,-9.4785,6.0075,-0.054186,2.2812,-0.020575,1.0337,8.2453,48.113,-6.0339,0.10575,-0.0024917,0.0025461,0.0047544,0,0,0.055324,0.047544,0.0073845,-0.00018385,-59.446,-55.599,-28.471,659.15,-3.4415,-5.1604,-2.3547,3.2817,-0.90292
0.066928,-0.032294,1.0151,-8.5754,-0.18795,-8.8853,-8.7043,5.6852,-0.062981,2.1588,-0.023915,1.1085,7.4584,47.288,-3.9281,0.097473,-0.0026895,0.0025461,0.0047544,0,0,0.055331,0.047544,0.0068068,-0.00019845,-70.578,-65.356,-34.457,705.54,-1.9269,-7.5557,-2.4076,16.746,-0.95584
0.11797,-0.013074,0.99701,-8.2216,-0.20382,-8.1545,-7.9579,5.2381,-0.073066,1.989,-0.027744,1.1698,6.2317,47.06,-3.1029,0.087884,-0.0028993,0.0025461,0.0047544,0,0,0.055339,0.047544,0.0061371,-0.00021393,-81.806,-75.164,-40.527,743.23,-0.46226,-9.9647,-2.5019,27.451,-1.003
0.11115,-0.0005343,0.98174,-7.7449,-0.22046,-7.4433,-7.23,4.7196,-0.083248,1.7921,-0.031611,1.2114,4.8206,47.013,-2.4795,0.0786,-0.0030858,0.0025461,0.0047544,0,0,0.055352,0.047544,0.0054888,-0.00022769,-90.429,-83.121,-44.765,768.05,0.62272,-11.971,-2.6522,34.602,-1.0197
0.12297,-0.0074688,0.96739,-7.1807,-0.23617,-6.7568,-6.5277,4.1407,-0.091105,1.5723,-0.034594,1.2322,3.2937,47.184,-1.2037,0.069295,-0.0032982,0.0025461,0.0047544,0,0,0.055368,0.047544,0.004839,-0.00024336,-95.526,-88.371,-46.724,779.41,1.3016,-13.419,-2.8538,38.519,-1.0964
0.14134,-0.015664,0.95733,-6.6109,-0.25368,-6.091,-5.8445,3.5829,-0.096065,1.3605,-0.036477,1.2326,1.9021,47.477,-0.40673,0.061062,-0.0035686,0.0025461,0.0047544,0,0,0.055401,0.047544,0.0042641,-0.00026332,-97.481,-90.831,-47.028,777.73,1.705,-14.313,-3.0524,40.089,-1.1563
0.13188,-0.026972,0.95622,-6.0244,-0.27015,-5.4329,-5.17,3.0506,-0.10026,1.1584,-0.03807,1.216,0.72137,47.897,-0.093592,0.053909,-0.0036467,0.0025461,0.0047544,0,0,0.055443,0.047544,0.0037645,-0.00026908,-96.822,-90.692,-46.236,765.31,1.9796,-14.78,-3.2087,39.534,-0.99848
0.10787,-0.036439,0.95544,-5.4435,-0.28323,-4.7722,-4.4964,2.5636,-0.10136,0.97345,-0.038487,1.187,-0.22011,48.13,0.17313,0.047015,-0.0035799,0.0025461,0.0047544,0,0,0.055477,0.047544,0.0032832,-0.00026415,-94.341,-88.551,-44.867,745.21,2.2315,-14.995,-3.3138,39.293,-0.8204
0.092268,-0.049015,0.95496,-4.8581,-0.29499,-4.0964,-3.8087,2.1155,-0.096805,0.8033,-0.036759,1.1517,-0.93863,48.193,0.51676,0.039632,-0.0036406,0.0025461,0.0047544,0,0,0.055515,0.047544,0.0027676,-0.00026863,-90.94,-85.254,-43.355,721.23,2.5174,-15.093,-3.3768,39.814,-0.77166
0.082507,-0.0594,0.9541,-4.2548,-0.30568,-3.4327,-3.1341,1.703,-0.090906,0.64667,-0.034519,1.1154,-1.4731,48.251,0.41249,0.031869,-0.003614,0.0025454,0.0047523,0,0,0.055573,0.047544,0.0022255,-0.00026667,-87.274,-81.516,-41.909,696.9,2.7959,-15.126,-3.4126,40.46,-0.59405
0.067556,-0.066144,0.954,-3.6523,-0.31358,-2.7609,-2.4545,1.3253,-0.086436,0.50324,-0.032821,1.0832,-1.8354,48.366,0.21804,0.023928,-0.003544,0.0025435,0.0047473,0,0,0.055674,0.047544,0.001671,-0.0002615,-83.622,-77.857,-40.402,675.32,2.9963,-15.112,-3.45,41.509,-0.47514
0.054331,-0.070398,0.95246,-3.0263,-0.31983,-2.0826,-1.7698,0.966,-0.082294,0.36681,-0.031248,1.0588,-2.1109,48.517,0.0931,0.015543,-0.0035572,0.0025416,0.0047421,-0.0001008,0.00092402,0.055818,0.047542,0.0010854,-0.00026248,-80.156,-74.647,-38.71,658.78,3.08,-15.073,-3.5139,42.841,-0.40311
0.045338,-0.073777,0.95146,-2.3691,-0.32603,-1.4024,-1.0838,0.61101,-0.078294,0.23201,-0.02973,1.0438,-2.3363,48.8,-0.060705,0.0065863,-0.0034825,0.0025409,0.0047402,-0.00028374,0.0026009,0.05603,0.047538,0.00045994,-0.00025697,-76.947,-72.024,-36.795,648.22,3.0476,-15.037,-3.6171,44.24,-0.33213
0.038859,-0.071816,0.95325,-1.7159,-0.33051,-0.73275,-0.4096,0.27222,-0.074979,0.10337,-0.028471,1.0389,-2.5341,49.224,-0.23383,-0.0020992,-0.0034229,0.0025396,0.0047367,-0.00037334,0.0034223,0.056326,0.047536,-0.00014659,-0.00025257,-74.043,-70.022,-34.691,644.07,2.9167,-15.033,-3.7638,44.978,-0.28078
0.029397,-0.069192,0.95436,-1.0424,-0.33413,-0.056583,0.27025,-0.071908,-0.07158,-0.027305,-0.02718,1.0436,-2.774,49.746,-0.36529,-0.010632,-0.0034344,0.0025377,0.0047316,-0.00037334,0.0034223,0.056849,0.047536,-0.00074245,-0.00025341,-71.584,-68.652,-32.583,646.1,2.7572,-15.128,-3.9562,45.031,-0.22522
0.019657,-0.065374,0.95459,-0.38352,-0.33662,0.6191,0.94827,-0.40929,-0.06855,-0.15542,-0.026029,1.0566,-3.0891,50.332,-0.39048,-0.019129,-0.00346,0.0025365,0.0047283,-0.00037334,0.0034223,0.057697,0.047536,-0.0013358,-0.0002553,-69.772,-67.868,-30.804,653.32,2.6836,-15.394,-4.185,44.778,-0.17087
0.014433,-0.060089,0.95475,0.27975,-0.33929,1.2918,1.6238,-0.75273,-0.068031,-0.28582,-0.025832,1.0757,-3.5097,51.087,-0.44021,-0.02746,-0.0034627,0.0025343,0.0047224,-0.00037334,0.0034223,0.059031,0.047536,-0.0019176,-0.00025551,-68.831,-67.607,-29.735,664.49,2.7972,-15.895,-4.4423,44.514,-0.17534
0.012966,-0.056618,0.95433,0.96062,-0.34231,1.9598,2.2948,-1.1257,-0.069596,-0.42744,-0.026427,1.0985,-4.0714,52.077,-0.61024,-0.036714,-0.003537,0.0025308,0.0047131,-0.00084042,0.0077039,0.061125,0.047536,-0.0025638,-0.00026099,-68.833,-67.723,-29.621,678.01,3.1482,-16.635,-4.7234,44.736,-0.20532
0.010219,-0.051557,0.95477,1.6502,-0.34523,2.6279,2.966,-1.5465,-0.072317,-0.58725,-0.02746,1.1221,-4.7198,53.41,-0.77523,-0.046943,-0.0034871,0.002516,0.0046744,-0.0030903,0.028328,0.064091,0.047536,-0.0032781,-0.00025731,-69.75,-68.041,-30.601,692.11,3.7551,-17.593,-5.021,45.401,-0.20542
0.0087155,-0.049353,0.95509,2.3188,-0.34805,3.3002,3.6412,-2.0034,-0.073923,-0.76074,-0.02807,1.1439,-5.4655,55.025,-0.95879,-0.057994,-0.0036241,0.0024868,0.0045976,-0.0067441,0.061821,0.067981,0.047527,-0.0040498,-0.00026741,-71.309,-68.274,-32.572,705.13,4.6003,-18.712,-5.3303,46.171,-0.20308
0.010045,-0.047522,0.95776,3.0338,-0.35103,3.9769,4.3206,-2.5276,-0.07704,-0.95977,-0.029253,1.1612,-6.2374,57.018,-1.3033,-0.070721,-0.0038311,0.0024461,0.0044879,-0.01673,0.15336,0.072514,0.04747,-0.0049386,-0.00028269,-73.387,-68.105,-35.679,715.41,5.7084,-19.964,-5.6335,47.364,-0.22856
0.01312,-0.047289,0.96194,3.7495,-0.35225,4.6635,5.0086,-3.1389,-0.083235,-1.1919,-0.031606,1.1724,-6.9853,59.342,-1.6376,-0.085483,-0.0043684,0.0023769,0.0043011,-0.028615,0.2623,0.077606,0.047372,-0.0059695,-0.00032234,-75.861,-67.336,-39.947,721.92,7.1027,-21.341,-5.9153,48.483,-0.026278
0.017632,-0.047963,0.96846,4.4725,-0.34589,5.3537,5.6924,-3.8481,-0.1075,-1.4612,-0.040821,1.1759,-7.7356,61.994,-2.0267,-0.10227,-0.0051231,0.0022691,0.0040102,-0.041995,0.38495,0.082981,0.047273,-0.0071415,-0.00037802,-78.524,-65.799,-45.251,723.72,8.7841,-22.814,-6.1464,49.432,0.34361
0.012942,-0.052817,0.97966,5.2142,-0.33174,6.0791,6.4036,-4.6485,-0.13168,-1.7651,-0.050002,1.1709,-8.5218,65.11,-2.3195,-0.12052,-0.0054998,0.0021136,0.0035927,-0.059015,0.54097,0.088704,0.047127,-0.0084163,-0.00040582,-80.891,-63.165,-51.233,720.29,10.725,-24.31,-6.2988,50.617,0.74315
-0.010045,-0.061065,0.99932,5.9662,-0.31295,6.8586,7.1645,-5.5377,-0.14204,-2.1027,-0.053934,1.1572,-9.1938,68.17,-2.7372,-0.14105,-0.0067644,0.0019439,0.003137,-0.088635,0.83189,0.094612,0.046852,-0.0098496,-0.00049913,-82.253,-59.077,-57.246,711.59,12.838,-25.727,-6.3245,50.62,0.69796
-0.043312,-0.063948,1.0326,6.6881,-0.28936,7.7169,7.9992,-6.5047,-0.1614,-2.47,-0.061285,1.1362,-9.6617,70.596,-3.4679,-0.16058,-0.0059251,0.0017724,0.0026782,-0.12749,1.3165,0.10048,0.046393,-0.011214,-0.0004372,-82.205,-53.156,-63.099,698.59,15.184,-27.136,-6.1696,47.561,1.5422
-0.0578,-0.068941,1.0692,7.3235,-0.25362,8.6406,8.8867,-7.5068,-0.18086,-2.8505,-0.068675,1.1116,-9.9883,72.428,-4.5283,-0.18057,-0.008125,0.0016232,0.0022843,-0.19334,2.0341,0.10606,0.045787,-0.01261,-0.00059953,-81.611,-45.855,-69.56,683.61,17.907,-28.74,-5.8111,40.454,2.6011
-0.046328,-0.072268,1.108,7.8313,-0.20772,9.6292,9.8293,-8.5305,-0.21785,-3.2392,-0.082721,1.0869,-10.143,74.037,-6.2213,-0.19767,-0.011211,0.001511,0.0019968,-0.26133,2.9192,0.11089,0.045014,-0.013804,-0.00082726,-81.454,-37.799,-77.393,668.58,21.108,-30.671,-5.2553,29.942,2.4819
-0.028539,-0.074869,1.1418,8.1868,-0.14265,10.669,10.805,-9.5635,-0.28593,-3.6314,-0.10857,1.0631,-10.435,75.521,-7.898,-0.21273,-0.015171,0.0014284,0.0017869,-0.35427,3.9748,0.11479,0.044167,-0.014855,-0.0011194,-81.872,-29.704,-86.08,654.24,24.581,-32.809,-4.5915,19.344,3.9097
-0.023206,-0.06996,1.157,8.3925,-0.037941,11.745,11.776,-10.522,-0.39406,-3.9955,-0.14963,1.0372,-10.879,77.159,-9.428,-0.22495,-0.019746,0.0013506,0.0016002,-0.4769,5.0989,0.11812,0.043425,-0.015709,-0.001457,-81.247,-21.629,-93.272,638.89,27.748,-34.675,-3.9354,10.532,6.2235
-0.018207,-0.063623,1.1592,8.4861,0.1097,12.868,12.751,-11.367,-0.50608,-4.3162,-0.19217,1.0018,-11.701,79.273,-10.386,-0.23394,-0.025632,0.0012741,0.0014327,-0.61341,6.549,0.12089,0.042533,-0.016336,-0.0018913,-77.135,-13.066,-96.019,618.45,29.943,-35.655,-3.3461,4.0061,9.1657
-0.012109,-0.062354,1.1536,8.4774,0.32885,14.011,13.675,-12.099,-0.64383,-4.5941,-0.24447,0.95133,-12.729,82.187,-10.885,-0.23941,-0.031987,0.0011922,0.0012564,-0.78944,8.4366,0.12312,0.041287,-0.016718,-0.0023603,-68.437,-3.8581,-92.927,589.86,30.783,-35.364,-2.8112,-1.753,12.8
-0.0086398,-0.076402,1.1465,8.3938,0.61435,15.191,14.569,-12.7,-0.80641,-4.8223,-0.30621,0.88196,-13.803,85.919,-11.231,-0.24216,-0.037784,0.0011026,0.0010713,-1.015,11.04,0.12504,0.039708,-0.01691,-0.002788,-54.354,6.5749,-83.443,550.95,30.131,-33.585,-2.2747,-6.8935,17.075
0.0063481,-0.094204,1.1418,8.2242,0.97141,16.428,15.449,-13.096,-0.96097,-4.9728,-0.3649,0.79502,-14.311,90.451,-11.752,-0.24441,-0.045008,0.0010211,0.00091269,-1.2956,14.677,0.12648,0.037945,-0.017068,-0.003321,-35.504,18.437,-68.647,502.6,28.142,-30.41,-1.7016,-12.331,22.389
0.049594,-0.1131,1.1439,7.9743,1.4357,17.758,16.315,-13.319,-1.083,-5.0575,-0.41124,0.695,-14.188,96.25,-12.748,-0.2448,-0.056371,0.0009614,0.00080187,-1.5636,19.099,0.12677,0.036351,-0.017095,-0.0041595,-13.846,31.079,-50.66,447.3,25.155,-26.187,-1.0771,-18.695,29.517
0.064082,-0.14613,1.169,7.6132,2.0369,19.193,17.149,-13.375,-1.2607,-5.0789,-0.4787,0.59015,-12.863,102.26,-14.836,-0.24763,-0.072598,0.00091677,0.0007229,-1.8421,23.991,0.12626,0.035262,-0.017293,-0.0053568,8.0492,43.596,-32.213,389.61,21.707,-21.459,-0.42235,-26.91,40.675
0.0097503,-0.16571,1.1793,7.126,2.8297,20.711,17.874,-13.37,-1.5381,-5.0767,-0.58405,0.48918,-11.039,106.74,-17.896,-0.24691,-0.092828,0.00087842,0.00065777,-2.1599,28.992,0.12562,0.034531,-0.017242,-0.0068496,28.674,55.474,-14.923,334.57,18.207,-16.705,0.21197,-36.501,57.348
-0.045462,-0.18783,1.1658,6.4526,3.9709,22.286,18.308,-13.277,-1.8832,-5.0414,-0.71507,0.3964,-8.773,109.46,-20.751,-0.24101,-0.11349,0.00084969,0.00060951,-2.3716,33.817,0.12413,0.034096,-0.01683,-0.0083739,47.439,66.258,0.83042,284.63,14.803,-12.221,0.76118,-48.32,81.815
-0.033177,-0.21363,1.1325,5.6369,5.5134,23.903,18.382,-13.038,-2.2244,-4.9507,-0.84463,0.31472,-6.6118,112.06,-22.594,-0.23217,-0.13571,0.00083365,0.00058558,-2.4295,38.27,0.12144,0.033846,-0.016213,-0.010013,62.545,74.739,13.713,240.81,11.706,-8.2993,1.2148,-59.24,111
0.027467,-0.24379,1.119,4.6915,7.4872,25.574,18.079,-12.64,-2.5491,-4.7996,-0.96795,0.24558,-4.8079,115.41,-23.188,-0.21804,-0.15429,0.00082279,0.00057303,-2.1902,41.754,0.11692,0.0337,-0.015226,-0.011385,71.906,79.624,22.067,202.94,9.1745,-5.1893,1.5924,-69.438,143.04
0.10071,-0.27436,1.1156,3.5728,9.9337,27.291,17.35,-12.082,-2.8231,-4.5876,-1.072,0.19073,-3.3027,119.48,-23.847,-0.1954,-0.16786,0.00082467,0.00058485,-1.567,44.26,0.10996,0.033607,-0.013645,-0.012386,74.729,80.584,25.099,171.41,7.4041,-3.0422,1.8796,-78.909,175
0.13977,-0.2813,1.0961,2.3569,12.816,29.079,16.255,-11.284,-2.9755,-4.2845,-1.1299,0.14893,-1.7729,124.25,-23.33,-0.16846,-0.17538,0.00083339,0.00062235,-0.43979,46.267,0.1003,0.03351,-0.011764,-0.012941,71.849,77.954,23.656,145.44,6.3031,-1.7745,2.0464,-83.147,203
0.13317,-0.26556,1.0611,1.1785,16.017,30.92,14.896,-10.311,-2.954,-3.9154,-1.1217,0.11611,-0.8149,127.86,-21.904,-0.13671,-0.17249,0.00084567,0.00067336,1.0206,47.716,0.089136,0.033449,-0.0095468,-0.012727,65.823,72.853,20.235,123.2,5.4946,-1.1103,2.0314,-83.698,226
0.087208,-0.23819,1.0175,-0.016685,19.495,32.794,13.292,-9.0755,-2.6715,-3.4461,-1.0144,0.08699,0.17296,128.68,-19.21,-0.098621,-0.16476,0.00085618,0.00071851,2.6044,48.733,0.077807,0.03336,-0.0068869,-0.012157,58.909,66.416,16.895,102.01,4.6135,-0.73313,1.824,-81.14,242.18
-0.0099246,-0.20599,0.98985,-1.1296,23.132,34.626,11.487,-7.5764,-2.1812,-2.8769,-0.82824,0.059504,0.59159,125.64,-15.993,-0.059641,-0.15161,0.00086537,0.00076822,4.1631,49.363,0.067001,0.033197,-0.0041648,-0.011187,52.624,59.751,14.67,81.099,3.5458,-0.43723,1.4811,-75.26,251.97
-0.11574,-0.17368,0.99198,-2.11,26.866,36.372,9.499,-5.9326,-1.6813,-2.2527,-0.6384,0.034183,0.63418,118.03,-12.011,-0.023499,-0.13212,0.00087695,0.00081923,5.5518,49.414,0.057204,0.032925,-0.001641,-0.009749,47.318,53.506,13.411,61.13,2.3805,-0.16919,1.0793,-64.327,255.69
-0.25001,-0.15141,0.98039,-2.9297,30.607,37.946,7.3306,-4.1976,-1.1294,-1.5939,-0.42885,0.012495,0.36758,105.4,-7.2595,0.0093158,-0.11075,0.00089984,0.00086349,6.5014,48.52,0.049771,0.032642,0.00065054,-0.0081718,43.065,48.156,12.747,43.389,1.2602,0.069887,0.68545,-48.432,252.73
-0.38806,-0.13867,0.96171,-3.4801,34.18,39.292,5.1058,-2.5001,-0.57402,-0.94931,-0.21797,-0.004788,0.050192,88.83,-3.0768,0.032695,-0.087117,0.00093006,0.00090932,6.9613,46.857,0.044974,0.032415,0.0022831,-0.0064281,39.767,43.89,12.349,28.711,0.29164,0.29042,0.36027,-29.959,244.57
-0.51794,-0.13879,0.94746,-3.7397,37.622,40.354,2.7242,-0.98432,-0.045152,-0.37376,-0.017145,-0.017441,-0.69444,68.458,0.43009,0.050649,-0.061164,0.00096606,0.00096643,7.1309,44.597,0.041562,0.032202,0.0035369,-0.0045131,37.226,40.714,11.931,17.463,-0.45412,0.47832,0.12786,-11.144,230.95
-0.60166,-0.14128,0.91982,-3.708,40.745,41.082,0.32976,0.27951,0.4345,0.10614,0.16499,-0.024871,-1.0996,45.56,3.6259,0.058216,-0.028391,0.0010219,0.0010382,6.9095,40.876,0.039446,0.032,0.0040653,-0.0020949,34.908,38.331,11.037,10.008,-0.90232,0.57852,-0.012665,8.0679,212.45
-0.67964,-0.15489,0.87048,-3.4322,43.526,41.457,-2.0764,1.1402,0.9477,0.43294,0.35986,-0.027884,-1.4884,20.643,5.6085,0.05918,-0.0011934,0.0010967,0.0011277,6.2237,35.672,0.039144,0.031825,0.0041327,-8.8061e-05,32.89,36.637,9.8766,6.0235,-1.1044,0.61103,-0.080222,24.285,187.19
-0.73602,-0.16425,0.80323,-2.9623,45.962,41.432,-4.5371,1.7143,1.5392,0.65095,0.58447,-0.027653,-1.8197,-6.6879,6.8232,0.057171,0.026892,0.0011903,0.0012538,5.1434,29.1,0.040262,0.031743,0.0039924,0.0019843,31.257,35.518,8.6868,4.7567,-1.1411,0.60077,-0.096356,37.741,157.12
-0.77404,-0.17287,0.71584,-2.3343,47.876,41.001,-6.8828,1.9703,2.1854,0.74817,0.82984,-0.025575,-2.0495,-35.576,7.3581,0.050121,0.065434,0.0012887,0.0014269,3.8998,22.065,0.042029,0.031724,0.0035001,0.0048282,30.214,34.914,7.8158,5.2891,-1.1105,0.58325,-0.083677,46.965,123.38
-0.79319,-0.17214,0.61741,-1.573,49.242,40.106,-9.1421,1.9663,2.9165,0.74663,1.1074,-0.022909,-2.213,-66.702,7.8763,0.039302,0.098498,0.0013739,0.0015918,2.7874,15.831,0.043664,0.031722,0.0027445,0.0072679,29.965,34.823,7.5536,6.6974,-1.087,0.58998,-0.061162,52.739,83.3
-0.80647,-0.16981,0.52394,-0.81044,49.956,38.765,-11.199,1.7837,3.7769,0.6773,1.4342,-0.020163,-2.8438,-98.576,9.1523,0.023708,0.14403,0.0014518,0.0017223,1.7823,10.121,0.04508,0.031722,0.0016556,0.010628,30.157,34.95,7.6978,8.2087,-1.0913,0.60806,-0.043216,54.106,39.922
-0.82402,-0.17109,0.42809,-0.066664,50,36.919,-13.088,1.437,4.8226,0.54567,1.8312,-0.018243,-3.9003,-133.24,10.515,0.00985,0.18001,0.0015102,0.0018284,1.0119,5.8028,0.046213,0.031722,0.00068785,0.013283,31.223,35.567,8.5894,9.334,-1.1713,0.68705,-0.034658,50.685,-8.6678
-0.82367,-0.16966,0.3601,0.62162,49.366,34.571,-14.802,1.0122,5.7833,0.38434,2.196,-0.017313,-4.9023,-169.47,13.183,-0.0020107,0.20909,0.0015476,0.0019323,0.52631,2.9815,0.046843,0.031722,-0.00014041,0.015428,32.928,36.615,9.9521,9.6758,-1.3023,0.81903,-0.029469,43.62,-59.527
-0.80786,-0.1639,0.30723,1.1697,47.896,31.657,-16.247,0.56659,6.6506,0.21514,2.5253,-0.016875,-6.2482,-207.01,17.047,-0.012123,0.22535,0.0015682,0.002001,0.25488,1.4018,0.047195,0.031722,-0.00084659,0.016628,34.648,37.734,11.265,9.0911,-1.432,0.95719,-0.024064,33.765,-110.84
-0.76605,-0.17036,0.30636,1.5366,45.771,28.24,-17.539,0.15866,7.0705,0.060247,2.6848,-0.016327,-7.9759,-241.94,22.069,-0.017698,0.22706,0.0015773,0.0020314,0.13223,0.72727,0.047389,0.031722,-0.0012359,0.016754,35.15,38.143,11.567,7.4065,-1.4739,1.018,-0.018306,22.941,-156.59
-0.71355,-0.16816,0.35547,1.7788,43.031,24.329,-18.708,-0.15646,6.9424,-0.059411,2.6362,-0.015664,-10.035,-272.57,28.425,-0.020565,0.219,0.0015767,0.0020672,0.090909,0.5,0.047538,0.031722,-0.0014361,0.016159,33.502,37.222,10.157,4.5061,-1.3684,0.94224,-0.010479,13.869,-195.47
-0.67471,-0.16436,0.42383,1.9026,39.807,20.035,-19.779,-0.38384,6.3686,-0.14575,2.4183,-0.015675,-12.212,-297.92,34.77,-0.021778,0.19921,0.001578,0.0021312,0.067231,0.4019,0.047581,0.031701,-0.0015208,0.014699,29.988,35.09,7.3198,0.60762,-1.1467,0.74714,-0.0084161,6.7033,-226.95
-0.58927,-0.17311,0.53053,1.9355,36.157,15.437,-20.727,-0.54522,5.4248,-0.20703,2.0599,-0.017005,-14.473,-316.86,41.107,-0.021154,0.17179,0.0015795,0.0022361,0.044965,0.31994,0.047612,0.031696,-0.0014772,0.012676,25.199,32.278,3.3596,-3.9617,-0.82272,0.48155,-0.013327,1.1046,-249.23
-0.47064,-0.17936,0.65326,1.9146,32.319,10.663,-21.664,-0.6266,4.1697,-0.23793,1.5833,-0.019388,-15.908,-326.56,47.22,-0.020114,0.14112,0.0015808,0.0024199,0.026578,0.24607,0.047638,0.031696,-0.0014046,0.010413,18.863,28.652,-1.9762,-8.6606,-0.35707,0.10829,-0.0217,-1.9749,-261.53
-0.3727,-0.18253,0.78166,1.8744,28.437,5.849,-22.595,-0.65783,2.852,-0.24979,1.083,-0.022545,-17.142,-326.03,52.149,-0.019311,0.11326,0.0015818,0.0026619,0.012692,0.18669,0.047658,0.031696,-0.0013486,0.0083569,11.112,24.198,-8.4835,-12.89,0.23254,-0.36959,-0.035971,-3.3078,-266.13
-0.28816,-0.18984,0.89069,1.8202,24.501,1.1309,-23.377,-0.66036,1.6163,-0.25075,0.61373,-0.0262,-17.188,-318.07,54.059,-0.01879,0.087762,0.0015826,0.002928,0.0023762,0.14307,0.047673,0.031696,-0.0013122,0.0064757,3.8264,20.032,-14.621,-16.146,0.79483,-0.79672,-0.056486,-3.5273,-263.68
-0.15685,-0.19492,0.98039,1.7723,20.74,-3.4014,-24.149,-0.65174,0.60714,-0.24748,0.23054,-0.029575,-15.85,-304.79,52.159,-0.018419,0.062112,0.001583,0.0033406,0.0043461,0.12016,0.047629,0.031696,-0.0012863,0.0045831,-2.1418,16.732,-19.761,-18.212,1.2768,-1.1222,-0.082024,-3.0916,-256.01
-0.027587,-0.18889,1.0489,1.7327,17.099,-7.6586,-24.765,-0.63474,-0.19973,-0.24102,-0.075842,-0.032101,-13.489,-284.49,47.858,-0.018216,0.039559,0.0015834,0.003921,0.01719,0.094545,0.047516,0.031696,-0.001272,0.002919,-7.4191,13.836,-24.328,-19.052,1.7194,-1.407,-0.10771,-2.3448,-243.69
0.046543,-0.17881,1.0646,1.7038,13.689,-11.534,-25.23,-0.62556,-0.88138,-0.23753,-0.33468,-0.033084,-10.517,-260.88,40.548,-0.017857,0.022732,0.0015835,0.0046459,0.016529,0.090909,0.047517,0.031696,-0.001247,0.0016773,-11.297,11.614,-27.59,-18.596,2.035,-1.622,-0.13499,-1.8211,-226.61
0.11028,-0.16998,1.0624,1.6805,10.583,-15.047,-25.637,-0.61716,-1.3828,-0.23435,-0.52509,-0.032181,-6.8395,-235.25,30.193,-0.017589,0.00212,0.0015835,0.0054708,0.016529,0.090909,0.047517,0.031696,-0.0012283,0.00015643,-13.283,10.41,-29.194,-17.057,2.1884,-1.7252,-0.15851,-1.1323,-206.1
0.20305,-0.15682,1.0323,1.6684,7.8454,-18.118,-25.97,-0.60892,-1.7723,-0.23122,-0.67298,-0.029656,-3.3236,-206.66,21.123,-0.017721,-0.01268,0.0015835,0.0062586,0.016529,0.090909,0.047517,0.031696,-0.0012375,-0.00093561,-14.556,9.4977,-30.083,-14.552,2.2813,-1.8165,-0.17264,-0.62997,-180.16
0.22225,-0.14432,0.99739,1.6638,5.5554,-20.727,-26.29,-0.60766,-2.0478,-0.23074,-0.77759,-0.026181,0.37321,-175.73,12.891,-0.017773,-0.018566,0.0015845,0.0069924,0.0033058,0.018182,0.047538,0.031696,-0.0012412,-0.0013699,-15.565,8.5819,-30.594,-11.438,2.3451,-1.9182,-0.17742,-0.26646,-150.31
0.21079,-0.14185,0.95544,1.6613,3.6832,-22.867,-26.557,-0.61381,-2.1697,-0.23307,-0.82387,-0.021772,3.6722,-147.55,5.3658,-0.01779,-0.024527,0.0015848,0.0077006,0,0,0.047544,0.031696,-0.0012423,-0.0018098,-15.12,8.4429,-29.825,-8.25,2.2843,-1.9284,-0.17648,-0.15175,-120.42
0.21441,-0.14255,0.92451,1.6594,2.2847,-24.583,-26.875,-0.61837,-2.0555,-0.2348,-0.78049,-0.017172,6.6927,-119.5,0.55699,-0.017864,-0.017617,0.0015848,0.0083263,0,0,0.047544,0.031696,-0.0012475,-0.0013,-14.179,8.56,-28.613,-5.2027,2.177,-1.911,-0.1695,-0.17939,-90.272
0.18806,-0.13619,0.89478,1.6566,1.2708,-25.87,-27.148,-0.62308,-1.7324,-0.23659,-0.6578,-0.012964,9.1677,-92.395,-1.6854,-0.017848,-0.01188,0.0015848,0.0088113,0,0,0.047544,0.031696,-0.0012464,-0.00087661,-13.238,8.6497,-27.372,-2.4989,2.0629,-1.8963,-0.1591,-0.23482,-65.781
0.1092,-0.14134,0.88253,1.6516,0.56778,-26.757,-27.332,-0.62553,-1.3246,-0.23752,-0.50296,-0.0089269,11.4,-68.766,-1.9446,-0.017769,-0.012077,0.0015848,0.009143,0,0,0.047544,0.031696,-0.0012408,-0.00089111,-11.641,9.1608,-25.623,-0.31914,1.8911,-1.8221,-0.14698,-0.31739,-44.227
0.047004,-0.15152,0.8707,1.6448,0.13557,-27.332,-27.475,-0.62344,-0.9287,-0.23673,-0.35264,-0.0051994,13.435,-48.915,-0.87534,-0.017672,-0.0039615,0.0015848,0.009313,0,0,0.047544,0.031696,-0.0012341,-0.00029231,-9.4944,10.071,-23.498,1.2842,1.6778,-1.7025,-0.13674,-0.43162,-24.644
0.0067381,-0.15714,0.85833,1.6374,-0.077075,-27.637,-27.567,-0.61905,-0.58396,-0.23506,-0.22174,-0.0020713,15.059,-31.947,2.4372,-0.017568,0.00087771,0.0015848,0.0094066,0,0,0.047544,0.031696,-0.0012268,6.4764e-05,-7.3533,11.072,-21.471,2.4029,1.4773,-1.586,-0.12501,-0.45651,-11.916
-0.071155,-0.16314,0.86243,1.6312,-0.16743,-27.687,-27.527,-0.61511,-0.22341,-0.23357,-0.084833,0.0006085,16.566,-18.528,6.0982,-0.017515,0.0027083,0.0015848,0.0094519,0,0,0.047544,0.031696,-0.0012231,0.00019984,-4.9559,12.312,-19.321,3.0258,1.2647,-1.4488,-0.11385,-0.41518,-4.7236
-0.083339,-0.1728,0.85971,1.6257,-0.20303,-27.539,-27.343,-0.61299,0.039271,-0.23276,0.014912,0.0027516,17.925,-7.1902,10.662,-0.017459,0.006243,0.0015848,0.009472,0,0,0.047544,0.031696,-0.0012192,0.00046065,-2.7354,13.512,-17.38,3.3473,1.0764,-1.3259,-0.10406,-0.36932,-0.51281
-0.1113,-0.18004,0.86585,1.621,-0.20383,-27.212,-27.015,-0.61181,0.18946,-0.23232,0.071941,0.0041162,19.096,2.503,15.897,-0.017436,0.0034279,0.0015848,0.0094935,0,0,0.047544,0.031696,-0.0012176,0.00025294,-1.2092,14.319,-16.029,3.4868,0.9486,-1.2527,-0.09587,-0.2918,0.11414
-0.11654,-0.18635,0.86413,1.6167,-0.20711,-26.756,-26.556,-0.60986,0.19693,-0.23157,0.074777,0.0053361,20.323,11.776,21.102,-0.017373,0.0019551,0.0015848,0.0094956,0,0,0.047544,0.031696,-0.0012132,0.00014426,-0.14699,14.873,-15.081,3.7733,0.85401,-1.2069,-0.091912,-0.36898,-0.11905
-0.1103,-0.18502,0.86418,1.6124,-0.20702,-26.057,-25.858,-0.60942,0.20213,-0.23141,0.076754,0.0045151,21.151,21.037,25.717,-0.017385,-0.0010566,0.0015848,0.0094956,0,0,0.047544,0.031696,-0.001214,-7.7962e-05,0.32339,14.949,-14.491,2.953,0.7977,-1.2213,-0.092861,-0.092398,-0.51541
-0.093889,-0.192,0.87206,1.6118,-0.20884,-25.414,-25.213,-0.6089,0.13771,-0.23121,0.052289,0.0062368,22.009,31.146,28.567,-0.017315,-0.00068621,0.0015848,0.0094956,0,0,0.047544,0.031696,-0.0012092,-5.0634e-05,0.0029499,14.684,-14.68,4.2729,0.79412,-1.2618,-0.10527,-0.41601,-0.19013
-0.088091,-0.18567,0.8716,1.6065,-0.20957,-24.284,-24.082,-0.60876,0.072461,-0.23116,0.027515,0.0023646,22.263,40.223,29.084,-0.01742,-0.0012947,0.0015848,0.0094956,0,0,0.047544,0.031696,-0.0012165,-9.5535e-05,0.21885,14.399,-14.089,1.5071,0.75103,-1.3214,-0.11873,0.27607,-0.51491
-0.064864,-0.18955,0.8901,1.6102,-0.21721,-23.572,-23.362,-0.60758,0.02269,-0.23071,0.0086159,0.0076278,22.975,50.923,26.936,-0.017206,-0.0013079,0.0015848,0.0094956,0,0,0.047544,0.031696,-0.0012016,-9.6509e-05,-0.70987,14.009,-15.013,5.4613,0.79319,-1.3548,-0.14658,-0.82385,-0.40509
0.0067344,-0.20126,0.9447,1.5998,-0.21466,-21.818,-21.611,-0.60694,0.0031745,-0.23047,0.0012054,-3.9052e-05,21.935,56.38,23.962,-0.017494,-0.0014113,0.0015848,0.0094958,0,0,0.047544,0.031697,-0.0012217,-0.00010414,-0.34255,13.606,-14.09,0.1111,0.8114,-1.4365,-0.17771,0.87702,-0.57801
0.46316,-0.42545,1.4049,1.6021,-0.23189,-21.601,-21.377,-0.59395,-0.020797,-0.22553,-0.0078969,0.031595,19.107,53.106,29.063,-0.016774,-0.0021622,0.0016432,0.0091497,0,0,0.047544,0.032865,-0.0011713,-0.00015954,-7.9246,10.752,-21.959,24.172,1.7287,-1.5373,-0.32922,-3.2722,-0.93494
1.0732,-0.64366,1.9693,1.4681,-0.23252,-19.446,-19.221,-0.50962,-0.047554,-0.19351,-0.018057,0.089427,13.553,40.989,42.808,-0.014247,-0.003294,0.0019996,0.0070158,0,0,0.047544,0.039992,-0.00099493,-0.00024306,-22.934,3.4386,-35.873,66.803,3.3343,-1.4091,-0.5152,-10.298,-1.4681
1.0109,-0.5889,1.6474,1.115,-0.28779,-21.304,-21.025,-0.3066,-0.086992,-0.11642,-0.033032,0.26121,19.638,50.168,33.479,-0.0029367,-0.003975,0.0023772,0.0047544,0,0,0.047544,0.047544,-0.00020507,-0.0002933,-45.769,-4.7656,-59.961,191.4,4.6922,-0.48568,-0.58956,-41.874,-1.2768
