accel_x,accel_y,accel_z,angle_ankle,angle_knee,angle_shank,angle_thigh,current_ankle,current_knee,current_qaxis_ankle,current_qaxis_knee,ground_reaction_force_vertical,gyro_x,gyro_y,gyro_z,impedance_current_desired_ankle,impedance_current_desired_knee,impedance_damping_ankle,impedance_damping_knee,impedance_equilibrium_angle_ankle,impedance_equilibrium_angle_knee,impedance_stiffness_ankle,impedance_stiffness_knee,impedance_torque_desired_ankle,impedance_torque_desired_knee,loadcell_force_sagittal,loadcell_force_x,loadcell_force_y,loadcell_force_z,loadcell_moment_x,loadcell_moment_y,loadcell_moment_z,velocity_ankle,velocity_knee
0.249649367387566,-0.16889435541691,0.339430777821084,-0.143230714021831,0.0546662663256183,-10.715204497343,-10.7737495468498,0.202085950294502,-0.126200045924905,0.0767353377138086,-0.0479202197353803,0.200114727957264,9.5272383986236,26.4984963018227,-13.6990861069928,0.0116001760586455,-0.00210437534771612,0.00272426032402984,0.00461159644274472,0,0,0.0552802818561648,0.0450341187410776,0.000810063641597714,-0.000155276887780765,-30.9125525961343,-11.3957458617616,-32.3212052672632,131.920947948473,1.54693802819388,-0.733470329723599,-0.175549637873151,-29.3704965807725,-2.70062417116104
0.592358371181073,-0.20629229538436,0.775793519375019,-0.94126198639932,0.068733839196362,-21.2872245503444,-21.3637430401106,0.762239868465088,-0.249413753806041,0.289434934196852,-0.0947064781143073,0.399451092010548,16.1763422581628,53.425153045498,-47.704265081007,0.041560780973062,-0.00306038402373689,0.00272426032402984,0.00461159644274472,0,0,0.0552806655619447,0.0450341187410776,0.00290227298383044,-0.000225818510531204,-57.5186300767715,-24.4169242508297,-56.9267024928615,287.781051540472,1.57099284732605,-1.44750071455783,-0.425809319951507,-67.810507088036,-4.21325093381693
0.486705227328989,0.00674045455314677,0.809755600043381,-1.97117482518409,0.00655255312164647,-17.9969405839962,-18.0103480883762,1.39629311693498,-0.162644123428267,0.530195314020238,-0.0617586315141967,0.408239015420306,9.55573208275974,48.3339430976028,-60.1151997515398,0.0610146341491288,-0.00243039495785957,0.00272426032402984,0.00461159644274472,0,0,0.0552810492677246,0.0450341187410776,0.0042607747054631,-0.000179333104972966,-45.6163868804106,-27.0080412085862,-37.5032717841486,280.5235339676,-1.09111657829973,-1.95780204494596,-0.483172255183829,-68.0079890059583,-2.65480332397543
0.280246367562646,0.00307037442046419,0.895061545357497,-3.04365692776777,-0.0230388454243774,-18.6167099678395,-18.6010876609569,2.26905532417812,-0.115813371335529,0.861597386351604,-0.0439762296599812,0.470971402173279,7.98861838368044,53.8979639868447,-61.8338439520907,0.0744324623718265,-0.00246535560893689,0.00272426032402984,0.00461159644274472,0,0,0.0552814329735045,0.0450341187410776,0.00519776865602562,-0.000181912768862284,-47.257987256175,-34.0809145914206,-32.7519719167169,323.552698199945,-2.88560677856564,-2.68603130920644,-0.689304440744548,-72.2537339073675,-2.33664030146922
0.16550157504137,-0.0292901516135562,0.920384712747527,-4.03996806344284,-0.0565494524934722,-16.8245207748571,-16.7753751077613,3.09520112644378,-0.0725972724855887,1.17529844793117,-0.0275663707109014,0.507560284373081,5.80367633446015,52.7152580912119,-52.7723739800506,0.0837253562262947,-0.00214663764656423,0.00272399837592176,0.00461170122198795,0,0,0.0552818166792844,0.0450357952089693,0.00584671013748883,-0.000158395323017481,-41.7146049622812,-35.0530208865077,-23.9403392001863,340.84914016034,-4.42385369596506,-2.45092795430109,-0.999273989723768,-67.2389021387276,-1.52545114412794
0.12668376975762,-0.0683188028903731,0.972442712206937,-5.05640062043422,-0.0744446970516532,-16.3195093493273,-16.2526793280378,3.94260549233989,-0.0639825932307303,1.49707173351797,-0.0242952362210749,0.569956782443194,6.33616559552046,54.4813256838809,-41.0512232610029,0.0935632003660401,-0.00207627409055306,0.00269511859700596,0.0046394284292282,0,0,0.0552822003850642,0.0455197705334576,0.00653370659418256,-0.000153203362371079,-40.6288665031105,-35.3355866729637,-22.1223073595812,379.516824206125,-5.22854612074324,-1.84131393469207,-1.41157617428994,-65.0124866708713,-1.27297236361184
0.0927403241600339,-0.0697748253763375,0.976686256841107,-5.95617916829808,-0.0937895107773051,-14.9472057633117,-14.860637780695,4.61704061299032,-0.0506986556985408,1.75316577010856,-0.0192511080606749,0.616092905044632,6.53809647743767,53.4034139216442,-30.2769990000594,0.101841616938445,-0.00195355298080317,0.00261921913268985,0.00470162800749174,0,0,0.0552825840908441,0.0466125132611232,0.00711180508522291,-0.000144148061467822,-37.7601265339145,-33.8400775715477,-19.5608054896384,404.804726030836,-5.70098606899947,-1.14587202551478,-1.73000531531644,-60.1206476737752,-0.968099620728898
0.0891140483322445,-0.0736758312785394,1.0010781958254,-6.82602736920345,-0.107649787308116,-14.1373166730328,-14.0369087691509,5.21109001420511,-0.0466994351836545,1.97873603540643,-0.0177325386779218,0.672431902708536,7.37252340856451,53.4525175491155,-22.1964368171595,0.109291668875451,-0.00195954388412889,0.00255860434048018,0.00474896203062176,0,0,0.0552882430986395,0.0474467655957358,0.00763205720654178,-0.00014459011607772,-37.6072504830328,-33.632719337753,-19.5519643389142,438.715502469481,-5.89357767820199,-0.725957033224308,-1.97536080547269,-54.0538207352314,-0.906248759516021
0.0852914569737397,-0.0790119555121467,1.01885302642176,-7.53185729453464,-0.121197607269014,-13.0786231437551,-12.9647640937995,5.65762056309361,-0.0414796352343239,2.1482909817971,-0.0157504953378148,0.725520625530097,7.76408727640541,52.7156908244804,-16.4729790681668,0.113294391256196,-0.00189744103798302,0.00254613561053558,0.00475435816164821,0,0,0.0552946381950882,0.0475435816164821,0.00791157536658163,-0.000140007693706006,-37.8967525619117,-34.4270294146909,-19.167072028262,469.869009544887,-5.98639060085876,-0.640476653947456,-2.12066713525268,-45.4552087133921,-0.792644222705835
0.0482786547471164,-0.0807221998948859,1.05545966383057,-8.09835077381616,-0.133397429227853,-12.2275988431074,-12.1015546141797,5.97682926324607,-0.0412287891538044,2.26949974159306,-0.0156552449818411,0.791871470269548,8.27626196083182,52.4576513643552,-13.0721321250985,0.115170108468567,-0.00200364689416696,0.00254613561053558,0.00475435816164821,0,0,0.0553023056158755,0.0475435816164821,0.0080425604747368,-0.000147844373046614,-40.2007667404019,-36.9976202271748,-19.8548493148989,510.267428712069,-5.91981338840981,-0.930268532283853,-2.21286295913541,-36.1184056695995,-0.797359059956126
-0.0131505906889746,-0.079349245124338,1.05914116723437,-8.52433855106765,-0.14598706329663,-11.3196476582109,-11.1807830506483,6.15631226113464,-0.043234439497614,2.33765236891225,-0.016416823192715,0.867466037678631,8.61015525274563,51.2831372011125,-10.1020932729607,0.115036856812199,-0.00210924487210608,0.00254613561053558,0.00475435816164821,0,0,0.0553102212950703,0.0475435816164821,0.00803325524337992,-0.00015563619848694,-43.8326681220522,-41.0246137129502,-20.9641400202549,556.397983916528,-5.56974270458064,-1.70065083377021,-2.27990490362023,-24.1418723875497,-0.782198591774907
-0.00626827180334806,-0.0706535678245948,1.0556534751314,-8.73787425585776,-0.158896269920746,-10.4636962640855,-10.3119230739252,6.16565071917977,-0.0477850369024532,2.34119833403637,-0.0181447593909071,0.950152191115802,8.60766861521136,49.5870890034417,-7.70922689574769,0.111521168810194,-0.00227765960050279,0.00254613561053558,0.00475435816164821,0,0,0.0553174261241484,0.0475435816164821,0.00778774767425103,-0.000168063123612377,-50.1242702355983,-47.1525521952931,-23.7338705759441,607.358108066587,-4.7335785496388,-3.11879789701595,-2.32460089392565,-10.5146024765954,-0.838886037309218
0.00654553492580429,-0.0459435938862341,1.04875289196398,-8.77373129937438,-0.173751860456004,-9.64523679665735,-9.47852216891761,6.0075359751958,-0.0541857464544826,2.28115958191402,-0.0205752134049897,1.03369977988745,8.24530627086608,48.1130077452827,-6.03389352338846,0.105745939460784,-0.00249166252354835,0.00254613561053558,0.00475435816164821,0,0,0.055324448683966,0.0475435816164821,0.00738445178510296,-0.000183853893972126,-59.4459753402616,-55.5986727268381,-28.4706318278564,659.149232900839,-3.44145361264758,-5.16038145435043,-2.35474199102519,3.2816556497755,-0.902915137077191
0.0669275468022132,-0.0322943900224868,1.01508355123066,-8.57540925106784,-0.187950707379869,-8.88531095314432,-8.70431063571654,5.68518931216136,-0.0629805752343545,2.15875928633276,-0.0239147536133768,1.10849846512055,7.45840153954686,47.2881292031783,-3.92806982494776,0.0974734728399672,-0.00268950229294331,0.00254613561053558,0.00475435816164821,0,0,0.0553308361873011,0.0475435816164821,0.00680676879115739,-0.000198452023390556,-70.5784944161717,-65.3560399132195,-34.4570241020043,705.540938994768,-1.92691421668704,-7.55572774175671,-2.40763612914575,16.7457482469836,-0.95584324604919
0.117972735572819,-0.0130736039271973,0.99700767378473,-8.22160211610429,-0.203820274090402,-8.15454124870705,-7.95793309903043,5.23806291670314,-0.0730656447336532,1.98897808726254,-0.0277442193073952,1.16979162038149,6.23167334554556,47.0601681081138,-3.10288763479833,0.0878841307069336,-0.00289926147321173,0.00254613561053558,0.00475435816164821,0,0,0.0553385396308897,0.0475435816164821,0.00613712572974694,-0.000213929657991661,-81.8064892406602,-75.1643762390362,-40.5274703352342,743.232368942128,-0.462261995392986,-9.964677048498,-2.5018927152977,27.4513036708595,-1.00299168890286
0.111146978843229,-0.000534302141568028,0.981735900778924,-7.74491033162438,-0.220458925983645,-7.44330675913528,-7.2300344674112,4.71961917646016,-0.0832478476005269,1.79211652694537,-0.0316105681283865,1.21138569063929,4.82056630184967,47.0130294933274,-2.47945954016661,0.0786000118684995,-0.003085802114385,0.00254613561053558,0.00475435816164821,0,0,0.0553519567933831,0.0475435816164821,0.00548879702531468,-0.000227694051419597,-90.4292655764247,-83.1211615086605,-44.7651323049578,768.047667881333,0.622717186962813,-11.9714215689442,-2.65216830047448,34.6019162131603,-1.01973544171703
0.122973290111225,-0.00746884060219818,0.96739163331314,-7.18070175197251,-0.236172509491177,-6.75681370705915,-6.52772666210596,4.14070557379984,-0.091105099212295,1.57229357170024,-0.0345940949646299,1.23222283743866,3.29373448709521,47.1841998117698,-1.20369769748957,0.0692946959462164,-0.00329816673755679,0.00254613561053558,0.00475435816164821,0,0,0.0553678684475706,0.0475435816164821,0.00483898808585432,-0.000243363935500228,-95.5263861435131,-88.370998235799,-46.7237126128466,779.412123547436,1.30156110806647,-13.4193801619165,-2.85377336033444,38.5187125596954,-1.09644336306108
0.141340861195741,-0.0156639247813963,0.957333601730987,-6.61091041708293,-0.253675888599637,-6.09101446329286,-5.84453890060515,3.58293636677634,-0.0960646091235794,1.36049948900949,-0.0364773019237618,1.23260497468672,1.90208560274322,47.4768471794722,-0.406727862437994,0.0610622265938087,-0.00356862180352029,0.00254613561053558,0.00475435816164821,0,0,0.0554010095848772,0.0475435816164821,0.00426409818166337,-0.000263320176183684,-97.4809345607218,-90.8309466208135,-47.0279131077635,777.730157904988,1.70503982640541,-14.3128399437198,-3.0524383342827,40.0894911258766,-1.15634463463273
0.131875950686016,-0.026972086544491,0.956223944759762,-6.02444100157034,-0.270154966537847,-5.43286863043968,-5.16999260798902,3.05060286075094,-0.100258364719461,1.15836375764516,-0.0380697394557634,1.2159760657978,0.721368430758965,47.8972419304222,-0.0935918827065335,0.0539085100834912,-0.0036467229383953,0.00254613561053558,0.00475435816164821,0,0,0.0554426377727745,0.0475435816164821,0.003764539759618,-0.000269083074503463,-96.8221499213902,-90.6915576081099,-46.2356399488412,765.307528953978,1.97956695350784,-14.7803446312709,-3.20871297821303,39.5335802375043,-0.998484671091983
0.107869127173413,-0.0364390539289209,0.955435455690069,-5.44349594132837,-0.283227394038719,-4.77219422277557,-4.49637928126158,2.56363146813719,-0.101358141053559,0.973452762028088,-0.0384873425018121,1.18701511958745,-0.220109048000263,48.1303476606573,0.173131573614738,0.047015133540429,-0.00357988142248163,0.00254613561053558,0.00475435816164821,0,0,0.0554772585724189,0.0475435816164821,0.00328316140146667,-0.000264150996879152,-94.341265038631,-88.5513669255616,-44.8673295835051,745.207438042969,2.23146538932105,-14.9947318368562,-3.31377691936044,39.2928001888531,-0.820402873220187
0.0922679979794948,-0.0490154279107025,0.954960383401517,-4.8580748136523,-0.294985264044338,-4.09644681995028,-3.80872172715107,2.11552482082384,-0.0968052383035541,0.803299345309697,-0.0367585309263878,1.15166488783727,-0.938630809663264,48.1932415375871,0.516755086977598,0.0396320745688078,-0.00364064546647923,0.00254613561053558,0.00475435816164821,0,0,0.0555153863445582,0.0475435816164821,0.00276758753375586,-0.0002686346322017,-90.9404543017921,-85.2542441772546,-43.3549796647105,721.23221203594,2.51738190532322,-15.0933922782953,-3.37675050133677,39.8141834456146,-0.771663965656712
0.0825074363823076,-0.0593997970932047,0.954099884666688,-4.25475362450203,-0.305676306777051,-3.43265914000162,-3.13412292131335,1.70302214684564,-0.0909063389965263,0.646665339088893,-0.034518622462663,1.11535861714108,-1.47306453555268,48.2506907148226,0.412494740210313,0.0318689217607282,-0.00361404753517528,0.00254537596102215,0.00475230710796194,0,0,0.0555725571799996,0.0475435816164821,0.00222547094843856,-0.000266672033657308,-87.2743463998667,-81.5158379883648,-41.9087263375742,696.895163847904,2.79587650265676,-15.1264215080349,-3.41264175503166,40.4597449513636,-0.594045656587121
0.0675564241040417,-0.0661440769352367,0.954002820234924,-3.65225970986159,-0.313578837992719,-2.76088578821396,-2.45452189937409,1.32531767963886,-0.0864356088187626,0.503244780633996,-0.0328210131557416,1.08318836609927,-1.83543097481144,48.3656234969723,0.218042988354584,0.0239282507883813,-0.00354396855387638,0.00254351612945478,0.00474728556273005,0,0,0.0556744105932177,0.0475435816164821,0.00167095791242351,-0.000261501071106948,-83.6221303224044,-77.8571339112444,-40.4024169052304,675.317288787695,2.99629387312069,-15.1120747213667,-3.44996350683493,41.5093521493074,-0.475138014057461
0.0543307070239315,-0.0703975627269054,0.952461431906535,-3.02626178072684,-0.319834215391287,-2.08258919388172,-1.76979783360148,0.966003344593962,-0.0822938236338094,0.366807255883255,-0.0312483096380439,1.0588301167355,-2.11090558920632,48.5166117569697,0.0931002739512639,0.0155432618017691,-0.00355718750089573,0.0025416039082658,0.0047421225655198,-0.00010080222352445,0.000924020382307456,0.0558180063457669,0.0475415850874428,0.0010854172552031,-0.000262476465993194,-80.1556415391288,-74.6474132380572,-38.709782127295,658.775480776437,3.08001207144803,-15.0730204336619,-3.51387485034137,42.8414720763961,-0.403110020652937
0.045338042506795,-0.0737772109811743,0.95145958904892,-2.3691117979673,-0.326025884836436,-1.40241575993145,-1.08383475772982,0.611012152515336,-0.0782939943520215,0.232011299163438,-0.0297295090965502,1.04382629057162,-2.33631709541344,48.8003962111067,-0.0607053016224028,0.0065863491767916,-0.0034825100250694,0.00254089664837398,0.0047402129638119,-0.000283739592142911,0.00260094626131002,0.0560298148418954,0.0475379617569641,0.000459938019217346,-0.000256966191390224,-76.9465724922494,-72.0243657266296,-36.794520670034,648.217339471856,3.04757362024302,-15.0366469001527,-3.61708672791498,44.2396541284003,-0.332126588737269
0.0388585117363568,-0.0718155137957771,0.953248799724157,-1.71590961906133,-0.330514012630977,-0.732748132786606,-0.409600418275778,0.272219991702633,-0.0749790571937087,0.103366379331715,-0.0284707732865026,1.03887482021375,-2.53414579058172,49.2236384550267,-0.233827094254878,-0.00209922379771085,-0.00342288201469884,0.00253958690783359,0.00473667666435282,-0.000373341568609098,0.00342229771225007,0.0563256247526781,0.0475361870644847,-0.000146593022856309,-0.000252566381306463,-74.0429603875245,-70.0215750001367,-34.6909837781543,644.074511261188,2.91667087620439,-15.0334504398593,-3.76381256424096,44.9779121040375,-0.280777210029289
0.0293965608490037,-0.0691921714096288,0.954358095171779,-1.04235135461227,-0.334125120830449,-0.0565832876519881,0.270249946243886,-0.0719077843519423,-0.071580240246869,-0.0273045607992874,-0.02718018695003,1.04364729769955,-2.77399704542498,49.7459506300193,-0.365287247271486,-0.0106319949834836,-0.00343436914388073,0.00253770088145541,0.00473158439313175,-0.000373341568609098,0.00342229771225007,0.0568491554680935,0.0475361870644847,-0.000742453608482129,-0.000253413989443878,-71.5838945597797,-68.6520124468313,-32.5829020870948,646.10016617564,2.75715225729436,-15.128163746104,-3.95615808566294,45.0310181704543,-0.225224268247818
0.0196571045259776,-0.0653739507846146,0.954587984470647,-0.383515615592138,-0.336622444046691,0.619100939020398,0.94826876742824,-0.40929326147976,-0.0685497153128237,-0.155415339848541,-0.0260294471092584,1.05657712140274,-3.08908496376504,50.3324083539415,-0.390481756996399,-0.0191288115840044,-0.00345997181696593,0.00253646972534744,0.00472826027164022,-0.000373341568609098,0.00342229771225007,0.057696914430547,0.0475361870644847,-0.00133580341305478,-0.000255303150234443,-69.7717971972978,-67.8679493409363,-30.8042725266274,653.317105332014,2.68363780818085,-15.3940874772836,-4.18503060292635,44.778278214717,-0.170865550126026
0.0144329602456545,-0.0600886949793503,0.954747819817132,0.279750936908054,-0.339289849064131,1.29180510709052,1.62378503744742,-0.752729096398725,-0.0680305655318315,-0.285823538622999,-0.0258323174537309,1.07570798965805,-3.50969302237426,51.0874282302393,-0.440207969915269,-0.0274597574984676,-0.00346272264183998,0.00253429555605037,0.00472239001453815,-0.000373341568609098,0.00342229771225007,0.0590314675590908,0.0475361870644847,-0.00191757013377572,-0.000255506127106291,-68.831300822579,-67.606910981407,-29.7352481576665,664.49220664959,2.79722136791853,-15.8950185156259,-4.44225507562691,44.5136522390811,-0.175343515722606
0.0129663477182723,-0.0566183431290162,0.954330572551372,0.960622468977714,-0.342314206879929,1.95982957188288,2.29478931692272,-1.12568797101936,-0.0695955986765948,-0.42744211802285,-0.0264265861137823,1.09847522915144,-4.07136261055994,52.076757157677,-0.610236968192791,-0.0367136737598986,-0.00353702722284419,0.00253083784102372,0.00471305418396619,-0.000840420389336576,0.00770385356891862,0.0611248591678495,0.0475361870644847,-0.00256378973146779,-0.000260988886680865,-68.8329210059332,-67.7230116611623,-29.6214387631843,678.010848836483,3.14816684291191,-16.6351635703375,-4.72338964251305,44.7363042760737,-0.205321207153039
0.0102188853410944,-0.0515574904284772,0.954773024371228,1.65019636511367,-0.345234633792768,2.62786438847289,2.96595656903677,-1.54654209499529,-0.0723172911801525,-0.587247306282988,-0.0274600572339135,1.12208709919921,-4.719757714813,53.4099045854072,-0.775225328593594,-0.0469431168000167,-0.00348711250169434,0.0025160115781064,0.00467443779387306,-0.00309033558269331,0.0283280761746887,0.0640911488733657,0.0475355779600805,-0.00327813232753714,-0.000257305797272406,-69.7502233442335,-68.0408165136032,-30.6008953183643,692.114126603451,3.75508469304477,-17.5925035150964,-5.02101966772229,45.4013559748354,-0.205416650884653
0.0087154868994903,-0.0493527131132891,0.955085926853414,2.31876886160818,-0.348052771538092,3.30019036326666,3.64115739703214,-2.00344876203771,-0.0739230559776179,-0.760742234298005,-0.028069792368112,1.1438693672547,-5.46549995737767,55.0245912105728,-0.958790848297793,-0.0579940871345596,-0.00362410863806605,0.0024867781692447,0.0045976293696219,-0.00674414772937146,0.0618213541859051,0.0679811299276701,0.0475271704624616,-0.00404984382804633,-0.000267414418682021,-71.3091252580131,-68.2740563521211,-32.5722757087229,705.13201701473,4.60029641654853,-18.7123801131428,-5.33028988848375,46.1713379217532,-0.203078131363161
0.0100448196938057,-0.0475221263855688,0.957764045610791,3.03378649221423,-0.351030504255967,3.97690590092054,4.32059322705521,-2.5276046692758,-0.0770401451693752,-0.959772797768588,-0.0292534020721265,1.1611622200316,-6.23744447540892,57.017542698031,-1.30330563782688,-0.0707205244013171,-0.00383113701569881,0.00244612382287071,0.00448786263441214,-0.0167301188048647,0.153359422377926,0.0725135130739937,0.0474700552139549,-0.00493855655660798,-0.000282690553804971,-73.3865782492561,-68.1052558699178,-35.6790383863347,715.405140384929,5.70837910627275,-19.9639872212485,-5.63345191950818,47.3644444659658,-0.228564475469182
0.013120285839268,-0.0472885165946589,0.961941997468334,3.74949977199953,-0.352250934614454,4.66345452974594,5.00857034951148,-3.13887815408276,-0.0832353714282962,-1.19188332907371,-0.0316058307219112,1.17235556784466,-6.98528983650116,59.3420386310943,-1.63759495502269,-0.0854833249344784,-0.00436843867802338,0.00237694332752683,0.00430107529698369,-0.0286149470736319,0.262303681508293,0.0776058487563944,0.0473720777110277,-0.00596947263060675,-0.000322336774720711,-75.8607293976675,-67.3359357768685,-39.9473365888282,721.923267625483,7.10271307976793,-21.3411312665608,-5.91534153623373,48.4831387386778,-0.0262777287732304
0.0176320708750394,-0.047962827185418,0.968458983854002,4.47249587408912,-0.345892423327741,5.35367699464994,5.69240617348838,-3.84813833634427,-0.10750322311321,-1.46120101065167,-0.0408207305797028,1.17588338359663,-7.73561740329852,61.9940369120333,-2.02673583243177,-0.102266843210434,-0.00512313289210184,0.00226907309661957,0.00401017930347999,-0.0419949855864241,0.384954034542221,0.082981065189287,0.047272698047649,-0.00714149949163957,-0.000378023878694551,-78.5236569574157,-65.7986929598579,-45.2505276764518,723.71527163597,8.78411590045531,-22.8139275298429,-6.14644059552705,49.4318404739531,0.34360765840367
0.0129420663703609,-0.0528168396351949,0.979664250492462,5.21416253757563,-0.331740940533516,6.07906646349489,6.40364850672838,-4.64851182919006,-0.131681260876872,-1.7651159051864,-0.0500015266239011,1.1709029619274,-8.52175155937359,65.1098147030674,-2.31954356765251,-0.120522090088809,-0.00549978770918722,0.00211359379706881,0.00359268378934132,-0.0590150692437296,0.540971468067521,0.0887043210274726,0.0471265194835325,-0.0084163001230955,-0.000405816348240502,-80.8913686912156,-63.1646890484353,-51.2329816336042,720.285735938327,10.7245971190999,-24.3104388596453,-6.29879982876876,50.6171779662457,0.743145104853894
-0.0100451586632524,-0.0610653726441584,0.999324892177595,5.96622644533961,-0.312948316322393,6.85864924191228,7.1645210091392,-5.5376832008913,-0.142038269668845,-2.10274880541282,-0.053934252111243,1.15720283474476,-9.19381983018976,68.1699053007657,-2.73724781246874,-0.141047396507122,-0.0067644049522073,0.0019438645204385,0.00313703815274193,-0.0886354511762135,0.831885575175893,0.0946115006601403,0.0468518146757516,-0.00984962358112492,-0.000499129468422776,-82.2531040452633,-59.0771099129442,-57.2463453751525,711.590887276137,12.8376898726735,-25.7273006341202,-6.32450093396044,50.6201041925565,0.697955879723559
-0.0433122820094886,-0.0639478842993629,1.03261003046407,6.68812594134055,-0.289357256660484,7.71692065527944,7.99916504829946,-6.50472851557688,-0.161397176647308,-2.46995171436721,-0.0612851454444893,1.13616215447095,-9.66173010433222,70.5961492444453,-3.46791242110072,-0.160580672761768,-0.00592506491036053,0.00177243258110567,0.0026782334219591,-0.127489295386799,1.31653066225778,0.100481747898967,0.0463931579438698,-0.0112136715761878,-0.000437196548694749,-82.2047806713031,-53.1558596591555,-63.0992560581071,698.585184550188,15.183701558284,-27.1361469734043,-6.1695943366877,47.5612571190349,1.5421961884678
-0.0578003632023267,-0.068941366813397,1.0692465604322,7.32352125487892,-0.253622490181241,8.64059614417641,8.88672546441203,-7.50681515509403,-0.180859785618183,-2.85046038698786,-0.0686754161189,1.11163631592913,-9.98829048190039,72.4276728716957,-4.52833257649658,-0.180570214310071,-0.00812501179431579,0.00162318764652721,0.00228432371547196,-0.193340135903582,2.03410276093435,0.106058915364427,0.0457868986718595,-0.0126095814950222,-0.000599525434458547,-81.6108036076979,-45.8551474331127,-69.5599578650608,683.613121775488,17.9071965623336,-28.7404470482121,-5.81106618542485,40.4537515341521,2.60113345247919
-0.0463278016532435,-0.0722678845779738,1.10801664682734,7.83128520352443,-0.207721831019127,9.62917979380535,9.82932376018785,-8.53047525505611,-0.217848592026998,-3.2391608550821,-0.0827206703648027,1.08687031108316,-10.1426713409335,74.0372577113283,-6.22132871775398,-0.197667819357547,-0.0112113549445841,0.00151096907702583,0.00199682256944899,-0.261333329820097,2.91919188698724,0.110894300421851,0.0450135338377229,-0.0138035416674658,-0.000827259407638407,-81.4535492860246,-37.7994402738793,-77.3932738298421,668.579503794268,21.1075731450541,-30.6707631641559,-5.25528334863342,29.941794968162,2.48191966306623
-0.0285386079532344,-0.0748690844069993,1.14182540241141,8.18681872341567,-0.142645705040482,10.6692857531857,10.8046259173099,-9.5634681489028,-0.285933503696542,-3.63140513752614,-0.10857362393512,1.06312080879709,-10.4351029403156,75.5213448899545,-7.89801506731189,-0.212726371841021,-0.0151705789701303,0.00142840303335908,0.00178685282445548,-0.354272908855729,3.97477439178357,0.114788232613551,0.0441673911647087,-0.0148551106954085,-0.00111940119944416,-81.8719665509662,-29.7044849762251,-86.0799604983076,654.236023352463,24.5805999446245,-32.8085367055723,-4.59145013965001,19.3442621661659,3.9097018472462
-0.0232055389021507,-0.0699602293034443,1.15696492897329,8.39252602955447,-0.0379413866232208,11.7451584587332,11.7758084713103,-10.5222551446293,-0.394056485266509,-3.99547222781849,-0.149629686928635,1.03722318820447,-10.8787881049518,77.1586792288794,-9.42803959775182,-0.224949478952184,-0.019746171274093,0.00135059134785398,0.00160020693900538,-0.476901311599415,5.0988680836007,0.118117719407823,0.0434251651472876,-0.0157086748661633,-0.00145702335106461,-81.2471328024791,-21.6287856636315,-93.2720114495624,638.89063587907,27.7483214890475,-34.6747198410218,-3.93542042941228,10.5322821415502,6.22345683326947
-0.0182065385083916,-0.063622653159822,1.15915879864807,8.48611991338672,0.109697334171488,12.8681335384861,12.7512205768548,-11.3669960662539,-0.506078076806884,-4.31623416009072,-0.192166115837037,1.00175617232353,-11.7008233178984,79.273133383243,-10.386340825123,-0.233939342556549,-0.0256318859059549,0.00127411559770008,0.00143266230959647,-0.613411113052712,6.5489958090438,0.120890694832194,0.0425327267449596,-0.0163364551353594,-0.00189131633562799,-77.1347840970576,-13.0664585763954,-96.018599224384,618.451849450766,29.9426032639553,-35.6553162958995,-3.34606632522971,4.00610255175814,9.16567312893325
-0.01210887181863,-0.0623544465413,1.15360649045048,8.47738540827862,0.328854313922918,14.0113621467384,13.6750751738284,-12.0987316883834,-0.643827037820107,-4.59408613346889,-0.244471647358015,0.951327047700689,-12.7287006014067,82.1865028446808,-10.8847356964923,-0.239408656507818,-0.0319872384619094,0.00119221752170894,0.00125635813545337,-0.789442239482142,8.43655386191963,0.123124326187507,0.0412866618522165,-0.0167183883365459,-0.00236026279363946,-68.4371510735891,-3.85806132942102,-92.9266858890251,589.862026556011,30.7829580005539,-35.3639682552059,-2.81116776076578,-1.75302859140612,12.8000509201101
-0.00863979908941337,-0.0764019923126759,1.14652909097241,8.39376112562479,0.614353819840082,15.1910790790761,14.5694702122568,-12.699648219996,-0.80640914056174,-4.82226396039801,-0.306206728603986,0.881963844316125,-13.8033369898585,85.9193641518983,-11.2305039708892,-0.242157361025489,-0.0377843307532304,0.00110259197652944,0.00107129441657608,-1.01501465294847,11.0400585611186,0.125035085119906,0.0397084667515632,-0.0169103359052728,-0.00278801654496102,-54.3542965280925,6.5748786991605,-83.4434620224377,550.954204370602,30.1314628476637,-33.5853295172085,-2.27471295660575,-6.89347108345264,17.0747633161903
0.0063480987234158,-0.0942043561093,1.14181201123941,8.22421294370188,0.97141153213285,16.4279846668522,15.4492728159195,-13.0961552313389,-0.96097406193544,-4.97282415212311,-0.364897555071806,0.795019713818639,-14.311278521452,90.4509083712366,-11.7520115521956,-0.244413227989761,-0.0450078411357771,0.00102113921232203,0.000912692695577013,-1.29564790210716,14.6767724359823,0.126480870917638,0.0379448155083104,-0.0170678676357224,-0.00332102231898856,-35.5039211684595,18.436874858684,-68.6470016925447,502.603386962122,28.1423829684982,-30.4097515496198,-1.70162559889062,-12.3311984676451,22.3891705044445
0.049594078758554,-0.113096837239316,1.14394698207826,7.97432423971364,1.43565394448023,17.75758411965,16.3145183525753,-13.3191634704307,-1.08303182864891,-5.05750402479476,-0.411244883699562,0.694996601866732,-14.1881053473988,96.2496040209239,-12.7481311930228,-0.244800401897247,-0.0563713638500757,0.000961401946274441,0.000801870309491697,-1.56356915053391,19.0987778192881,0.126767338912967,0.0363506942164566,-0.0170949047689387,-0.0041595098270357,-13.846000311316,31.0786782455244,-50.6598796704095,447.299010724872,25.1554702908893,-26.1873594245273,-1.07711232565247,-18.6946804428314,29.5170988810111
0.0640824049605725,-0.146132801251847,1.16901321470859,7.61318443436775,2.03692707748975,19.1933154406522,17.1491668262621,-13.375469515837,-1.2606814195807,-5.07888435036063,-0.478701336436649,0.590152089545818,-12.8631741965773,102.255883158238,-14.836313935809,-0.247632166715446,-0.072597831294179,0.000916765988657648,0.00072289557438672,-1.84210457778004,23.9914131751049,0.126257573974228,0.0352620109018512,-0.0172926526056251,-0.00535682254367191,8.04918396870779,43.59644045212,-32.2131753175374,389.613634729429,21.707019709145,-21.4591026169778,-0.422354008862586,-26.9100627707354,40.6746300628056
0.00975032255464756,-0.165714461598524,1.1793052006588,7.12604008624279,2.82969506542725,20.7106101384984,17.8736635587689,-13.3696809564691,-1.53811921856673,-5.07668633977492,-0.584049002460653,0.489180182409024,-11.0385240262917,106.738995455081,-17.896190649048,-0.246913312995029,-0.0928280678172509,0.000878416785634769,0.000657772655237003,-2.15990172029751,28.9918263754545,0.125622775558752,0.0345312023801759,-0.0172424536035071,-0.00684956392642029,28.6741307958386,55.4739969171751,-14.92265225644,334.568782018197,18.207338634313,-16.7047725965116,0.211965912987311,-36.5006309139032,57.3475715814182
-0.0454621013898269,-0.187834657931464,1.16583373574814,6.45257186591138,3.97092967264741,22.2862096718404,18.3079874347003,-13.2766762319658,-1.88318040377902,-5.04137092604456,-0.715074373302144,0.396401398640383,-8.77304066523863,109.462620399544,-20.750545650684,-0.24101093883304,-0.113487046584193,0.000849694175583824,0.000609508716323303,-2.37157956050129,33.8170550621709,0.124126511491617,0.034095619751491,-0.0168302789361951,-0.00837394118694141,47.4390127468958,66.2584778669589,0.830417345291336,284.628765239271,14.8032132958139,-12.2208260699978,0.761179357741315,-48.3204632528792,81.8151889059033
-0.0331769504204205,-0.213627349026643,1.13253078367977,5.63694829841482,5.51337415564997,23.9028497733708,18.382250317279,-13.0380079778054,-2.22436677074379,-4.95074468974325,-0.84462841233472,0.314716507991054,-6.61184011860154,112.061013162813,-22.5940849399482,-0.232168099817084,-0.135705964594799,0.000833649853963937,0.000585584995612373,-2.42948459374526,38.2702754426649,0.121443464182196,0.0338457858423583,-0.0162127656899207,-0.0100134226807192,62.5451110733109,74.7386772606874,13.7134670793205,240.808695972048,11.7059375422169,-8.29927477224633,1.21478290408143,-59.2401501485221,111.004724396521
0.027467392787838,-0.243791756176144,1.11902461847276,4.69148777060656,7.48723680468837,25.5736777579377,18.0792101691002,-12.6399629056992,-2.54914836017348,-4.79960047121212,-0.967953289258599,0.245582591031633,-4.80786272293009,115.407525023979,-23.1877307007466,-0.21803814507454,-0.154294696746617,0.00082279210488403,0.000573032442273189,-2.1901983109803,41.7543936082286,0.116915681236816,0.0336995068181423,-0.0152260425111958,-0.0113850413320483,71.9062037706612,79.6237840561176,22.0669445351149,202.940020275168,9.1744576074494,-5.18926934557116,1.59236315600795,-69.4384851331766,143.036385500015
0.100705765156589,-0.274359264205443,1.11564686839062,3.57279235123808,9.93370228980015,27.2908296324264,17.3498390420552,-12.0816823246258,-2.82313897346021,-4.58761221143802,-1.0719920025404,0.190732399999903,-3.30265186412165,119.479050103495,-23.8466835039669,-0.195401107476659,-0.167859721767651,0.0008246650338568,0.000584846301947586,-1.56704850691394,44.2603688891354,0.109958488649304,0.0336070037628175,-0.0136452526146616,-0.0123859724968333,74.7289302012183,80.5838807171351,25.0987858750602,171.40859856227,7.40414121011753,-3.04217977421773,1.87958825763332,-78.9093374941557,175.001393945753
0.139766356693746,-0.281299586892237,1.09612309483253,2.35693256413861,12.8160229276103,29.0785207548984,16.2551377554166,-11.2835062920816,-2.97551330991895,-4.28453172848959,-1.12985102811858,0.148927903428343,-1.77292430835128,124.252601962627,-23.3297482004837,-0.168459214341798,-0.175379496950596,0.000833387905855857,0.000622352032062451,-0.439791763214631,46.2665760112857,0.100299299372191,0.0335103850867941,-0.0117638459916909,-0.0129408389509029,71.8487719928797,77.9538236157129,23.6556841764697,145.439008145986,6.30307741330669,-1.77453898451225,2.04638598182404,-83.1468969096504,203.001433392252
0.133167006414577,-0.265561718839725,1.06113673708649,1.17853976967905,16.0173352374502,30.9200761979881,14.895501830624,-10.3113519487398,-2.95396956213237,-3.91538883786525,-1.12167051502692,0.11610587877253,-0.814899357740432,127.856479426663,-21.9041375313072,-0.136711578826436,-0.172487219769374,0.000845673272124799,0.000673363806629911,1.02056617047867,47.7163252554608,0.0891355265849692,0.033449282603578,-0.00954684470587649,-0.012727424647325,65.8233871021092,72.8534778308689,20.2348489302682,123.20257415546,5.49459003820301,-1.1103367500933,2.03141738751145,-83.6978277984716,226.004013286357
0.0872080273449639,-0.238185927386165,1.01752353528655,-0.0166854566986909,19.4948690553148,32.7943342655636,13.2921876850482,-9.07554190115194,-2.67151210789105,-3.44613156780974,-1.0144168038738,0.0869895093402542,0.17295846862698,128.677498983671,-19.2100614720068,-0.0986211913116633,-0.164756405702873,0.000856177391258798,0.000718510563057462,2.60436504002647,48.7327144058176,0.077806939562903,0.033359651379847,-0.00688691628202398,-0.0121569861323705,58.9093789620932,66.4158140127697,16.8946286663988,102.013089995973,4.61348743394661,-0.733129877014803,1.8240394298629,-81.1398333132093,242.175254973293
-0.00992462164261889,-0.205991290610719,0.989851378706963,-1.12964213506826,23.1317514356984,34.6255497053317,11.4867615887867,-7.5763817999477,-2.18120727309622,-2.87687597886193,-0.828240045787127,0.0595037658092161,0.59159300102661,125.635795049795,-15.9928024907287,-0.0596409300859407,-0.151611356657606,0.000865371769852398,0.000768220455527765,4.16312163443445,49.3629001691991,0.0670012320040595,0.0331972243816891,-0.00416484618590633,-0.0111870440031349,52.6235171525606,59.7511926168725,14.669699040052,81.0986833780769,3.54579997651707,-0.437234318647576,1.4811189869625,-75.259510512911,251.974665246758
-0.115740741923381,-0.173680516565165,0.99197609186855,-2.10996113954585,26.8657453138263,36.3723975240691,9.49897656696559,-5.93258573655723,-1.68126119407928,-2.25269975150384,-0.638402349716958,0.0341832873362226,0.634183149690134,118.034421183804,-12.0111804851131,-0.0234992032315901,-0.132122102200552,0.000876949876229524,0.000819229610614142,5.5518432953873,49.4135576710709,0.0572038119048107,0.0329253894918358,-0.00164099665799807,-0.0097489779373339,47.3176220945429,53.5060244296074,13.41119847574,61.130027608774,2.38053011778034,-0.169193933053995,1.07926158356003,-64.3265860904045,255.687981204506
-0.250008316830174,-0.151406575513739,0.980387215508147,-2.92974860008519,30.6066152882115,37.9460276457061,7.3306028858448,-4.19761127502582,-1.12940878942963,-1.5939015963801,-0.428854973576973,0.0124950769510284,0.367584917133226,105.402613303689,-7.25951986096581,0.00931582703520133,-0.110747021904837,0.000899844140875696,0.000863485743474223,6.50139996833663,48.5201972599448,0.0497706999562942,0.0326419868697356,0.000650542951630922,-0.00817176123595754,43.0650778162891,48.1560455598686,12.7471715525802,43.3889663672551,1.26024958040654,0.0698874044116608,0.685451746675827,-48.4321516313142,252.725027703691
-0.388058874129073,-0.13867487734321,0.961707602983935,-3.48011943828407,34.17958058485,39.2924350870665,5.10584443707906,-2.50005650239848,-0.574022932836946,-0.949312308626975,-0.217965887992324,-0.00478803381775704,0.0501919732519766,88.830115770276,-3.07684927150387,0.0326947510085171,-0.0871168120954329,0.000930059855142698,0.000909324042907104,6.9613001719266,46.8571726664307,0.0449739318998239,0.0324145026252443,0.00228314026694025,-0.00642814385287378,39.767009382205,43.8900360956103,12.3490079077221,28.7105181963574,0.291643291727725,0.290424196599859,0.360266096068486,-29.9591564556803,244.571912292591
-0.517940629349306,-0.138788001194091,0.947462762063236,-3.73970966096221,37.6221758621679,40.3538807938176,2.72424370098669,-0.984323346540052,-0.0451516906794631,-0.373763659998446,-0.0171448347972179,-0.0174413474309134,-0.694437286154502,68.458237313799,0.430093936845948,0.0506490113104178,-0.061163765506627,0.000966064622598266,0.000966431349949579,7.13087800931128,44.5972546116165,0.0415615045006335,0.0322022666340956,0.00353692239997187,-0.00451312982882496,37.2260862298287,40.7143842594681,11.9312517608259,17.4628753842862,-0.45412322863072,0.478324533438865,0.127856941028301,-11.143500644723,230.947498252119
-0.601658926497711,-0.141284960768968,0.919824487621248,-3.70798282758312,40.7448340786926,41.082023593924,0.329755976226965,0.279514080528256,0.43450232504199,0.106136064055136,0.164987633236961,-0.0248712971571415,-1.09958663858855,45.5600992930142,3.625927059242,0.0582155845645314,-0.0283909081142573,0.00102193815405168,0.00103819989260128,6.9095205991169,40.8760611747622,0.0394457341138438,0.0320004878274865,0.00406531143938433,-0.00209489806941335,34.9082514246268,38.3311930884273,11.0365295150099,10.0083093652225,-0.902317894070462,0.578518837755263,-0.0126653416864145,8.06791545315227,212.44992394152
-0.679635018223959,-0.154888780798664,0.870481536006905,-3.43219483756314,43.5255858587341,41.4566813343112,-2.07636836362079,1.14017769256713,0.947700988552124,0.432944102078283,0.35985755220627,-0.027884364794637,-1.48836408187504,20.642595900241,5.60848141668251,0.0591802520405776,-0.00119343755754337,0.00109669814409765,0.00112767088839701,6.22365152798442,35.6722852359007,0.0391444104618019,0.0318247968820587,0.00413267611080192,-8.80609392697614e-05,32.8902343811217,36.6372267493585,9.87658878205367,6.02352494277279,-1.10439653037831,0.611030530377129,-0.0802217263588223,24.2847093101542,187.189514250856
-0.736017319285829,-0.164254516062258,0.803228282217676,-2.96232125735512,45.9616669643927,41.4318973775242,-4.53713076724637,1.71431629400846,1.53924085522563,0.65095391132989,0.584474906229259,-0.0276530725106402,-1.81965341682534,-6.68787558834662,6.82322857080291,0.0571713129852939,0.0268916598336739,0.00119029220311457,0.00125380676088067,5.14337324910225,29.0996846105023,0.0402616680675092,0.0317426658043121,0.00399238785322344,0.00198427207901087,31.2572623033368,35.5176107308742,8.68683354115796,4.75668744280063,-1.14110278978806,0.600769431544789,-0.0963557189549184,37.740531003272,157.115767116452
-0.774038829546698,-0.172871407275334,0.715842630829226,-2.33426686050503,47.8760137473928,41.0005150265797,-6.88278429889507,1.97034370316015,2.18542836945774,0.748171702455971,0.829842865054631,-0.0255746007770809,-2.04947263952484,-35.5756639993251,7.35806635341667,0.0501211004508174,0.065433655604888,0.00128867991250934,0.00142694660187817,3.8998252491902,22.0649352157566,0.0420285544793689,0.031723746732581,0.00350005732213125,0.00482819493655085,30.2144422564754,34.9139023996278,7.8157716190184,5.28910022749689,-1.11049149143727,0.583246487838548,-0.0836770643329695,46.9646172303825,123.381905198689
-0.79318573183902,-0.172139241091444,0.617409695220185,-1.5729955849492,49.2415761534383,40.1063729552184,-9.14207332870375,1.96629222990467,2.91645196641216,0.746633291853726,1.10742447083827,-0.0229093394423013,-2.21297403971709,-66.7021356434001,7.876259288668,0.0393021352364788,0.0984976950665942,0.00137385233985148,0.00159178006836846,2.78740864030045,15.8305723123975,0.0436639803248775,0.0317219158884628,0.00274454720611759,0.0072679123332815,29.9649059075455,34.8231308193396,7.55364551034489,6.69742021110166,-1.08696294098493,0.589975971598648,-0.0611616358192455,52.7394437692609,83.2998460572019
-0.80647197223181,-0.169805313754027,0.52394452622757,-0.810439407392867,49.9559458863862,38.764601619105,-11.1993333291526,1.78369780458649,3.7769190721229,0.677299204694128,1.43415789219742,-0.0201631477308726,-2.84384224630252,-98.5761953667558,9.15234393167899,0.023708192069167,0.144034988231663,0.00145176880459982,0.00172229309373814,1.78225072170448,10.1208835358906,0.0450796078774405,0.0317219158884628,0.00165559076915337,0.0106280016672999,30.1566547159136,34.9501476391117,7.69780245593586,8.20871627355215,-1.09133897766698,0.608063497401541,-0.0432161761760409,54.1057903116674,39.9222155115218
-0.824024820797458,-0.171090889939946,0.4280853381892,-0.0666640983563801,49.9998559817823,36.9189831242109,-13.0882764464669,1.43704149296418,4.82264065787755,0.545668138287996,1.8312354669648,-0.0182433130604079,-3.90034208349385,-133.243901866965,10.5148200190498,0.00985000547026708,0.18001310315024,0.00151015703789081,0.00182840827232125,1.01192662121276,5.80279385100435,0.0462134361445911,0.0317219158884628,0.000687845706880901,0.0132827418108957,31.2229836524577,35.5665756785488,8.5893912605103,9.33396439951176,-1.17134998956335,0.687053589980121,-0.0346577102910939,50.6850021752511,-8.66784221052276
-0.823674105716365,-0.169659472326567,0.360098831090394,0.62161893299928,49.3655892108109,34.5709132970341,-14.8019813264467,1.01217699080711,5.7832727633073,0.384340143896896,2.19600317556331,-0.0173128012391678,-4.90234394802595,-169.468902667682,13.1832694674686,-0.00201070653226281,0.209085112212788,0.00154764181215702,0.00193226545821273,0.52631133917364,2.98153999696897,0.0468426946056432,0.0317219158884628,-0.000140411684053294,0.0154278967109784,32.9277749531363,36.614806570186,9.9520993473084,9.67575570025419,-1.30225807504259,0.819030852053354,-0.02946931518797,43.6200898687872,-59.5265382003642
-0.807855731888569,-0.163900942633341,0.307234994786877,1.16970102182809,47.8964225774467,31.6570727506985,-16.246876103091,0.566588723327147,6.65059207693854,0.21514299715534,2.52533849224521,-0.0168751485517791,-6.24823831280442,-207.010573285786,17.0470201794138,-0.0121232750445808,0.225353333368723,0.00156821783604669,0.0020009954028107,0.25487603305785,1.40181818181817,0.0471946667365198,0.0317219158884628,-0.000846592696615547,0.0166282903354164,34.6476857788237,37.734054683449,11.2651724498049,9.09109659464905,-1.43204643450446,0.95718910869176,-0.0240641720565632,33.7646225665561,-110.838330659011
-0.766046031820959,-0.170356152517563,0.306361839231147,1.53660553854996,45.7711486145064,28.2396559549558,-17.5386754899751,0.158663799769974,7.07046987130874,0.0602472375766952,2.68477295219936,-0.016326840598134,-7.97586154483206,-241.940362904075,22.0694404800726,-0.0176983529087417,0.22706051952327,0.00157732053280247,0.00203140757815876,0.132231404958677,0.727272727272726,0.047389032232715,0.0317219158884628,-0.00123591160470807,0.0167542595705284,35.1497199856419,38.1425543795928,11.5666563377186,7.40652216142529,-1.47390532511051,1.01802371352954,-0.0183056848029115,22.9413560477489,-156.587033512783
-0.713551630159148,-0.168162042458818,0.355466793305695,1.77882130797417,43.0305591547334,24.3288338546172,-18.7079983810412,-0.156462700258388,6.94243553060929,-0.0594114441228845,2.63615622076297,-0.0156637621294075,-10.0353232311822,-272.567395339305,28.4245556816809,-0.0205652202002695,0.218998291205575,0.00157666566253227,0.00206721588453327,0.0909090909090915,0.500000000000003,0.0475376761180182,0.0317219158884628,-0.00143611071775701,0.0161593667805572,33.5021447121689,37.2218073909281,10.1573800296072,4.50609590612251,-1.36843376568323,0.94223589578317,-0.0104790210647713,13.8693151168892,-195.47085508944
-0.674712558647908,-0.164359687575908,0.42383419196526,1.90255487345919,39.8073046971732,20.0350467638083,-19.7794114272317,-0.383842388200372,6.36861455192746,-0.145751227358984,2.41826701806357,-0.0156748200992781,-12.2120727148826,-297.91984591902,34.7697587348031,-0.0217781687718921,0.19921208363151,0.00157797540307267,0.00213120980733716,0.0672311382474251,0.401896384247095,0.0475809690229889,0.0317009600398164,-0.00152081335778868,0.0146993892454566,29.9879877539536,35.0896108978317,7.31980809208778,0.607615690680072,-1.14666053788939,0.747139186762147,-0.0084160524909771,6.70330580807704,-226.947889828916
-0.589269113735655,-0.173108270398733,0.530530411888015,1.93553993139542,36.1567279712136,15.4369361587331,-20.7266814968607,-0.545220918214018,5.42479676768661,-0.207029292371958,2.05988398199167,-0.0170050722557215,-14.4734791857566,-316.860156027652,41.1068186629127,-0.0211543153587559,0.17179371250534,0.00157952089691034,0.0022360938298123,0.0449648880442328,0.319943071715741,0.0476118788997423,0.0316957210776548,-0.00147724841833315,0.0126762523839123,25.1994462393486,32.2778237389821,3.35957489699633,-3.96172237638409,-0.822724890423014,0.481545826170669,-0.0133272489572834,1.10463882202331,-249.229152886045
-0.470636833543693,-0.179355035817366,0.653262602489646,1.91457404767345,32.3187602032111,10.662663166633,-21.6636236502749,-0.626599169556017,4.16974209831651,-0.237929944248979,1.5833192145595,-0.0193876536882238,-15.9078964439802,-326.556357209679,47.2200514485226,-0.0201136631355751,0.141123041371447,0.00158083063745074,0.00241985042763026,0.0265779894877875,0.246065399392261,0.0476380737105503,0.0316957210776548,-0.0014045775790903,0.0104131359845556,18.8628139622198,28.6522622050646,-1.97621487517283,-8.6605925052292,-0.357071485299576,0.10828615060845,-0.0217004856538128,-1.97491676396929,-261.532430232314
-0.372704496575108,-0.182534012822379,0.781658048249789,1.87439918772355,28.4365348311486,5.84896024283965,-22.5946485897147,-0.657825860303623,2.85200440152405,-0.249787229016724,1.08295267728055,-0.0225451241850472,-17.1421685466682,-326.031993116816,52.1486961250983,-0.0193114587001408,0.11325643505425,0.00158183913766684,0.00266185118727977,0.0126919714859794,0.186687231075492,0.0476582437148724,0.0316957210776548,-0.00134855802878448,0.00835692490669715,11.1120406464332,24.1982627913512,-8.48346420352421,-12.8903993052305,0.232540752043513,-0.369586170831929,-0.0359712993243481,-3.30777513544867,-266.132372642227
-0.288164887115122,-0.189839487006646,0.890685039271442,1.82015401143021,24.5013157281771,1.13091744701663,-23.3773046368562,-0.660364946238101,1.61627516601031,-0.250751361438511,0.613726092890175,-0.0261999859014673,-17.1882941304585,-318.066507754305,54.0591036441685,-0.0187903249925783,0.0877616957953336,0.00158258568977487,0.00292795117287262,0.0023761922899707,0.143066722190422,0.047673174757033,0.0316957210776548,-0.00131216621311089,0.00647572829830544,3.82644472886979,20.0324889496894,-14.6210789184507,-16.145702182534,0.794826074251136,-0.796717542620547,-0.0564858525297429,-3.52728159214318,-263.677624097119
-0.156852366579152,-0.194921123809601,0.980391779990967,1.77230307426025,20.7403951762506,-3.40137560174168,-24.148987775345,-0.651739237267148,0.607137610682293,-0.247476038785241,0.230540072313617,-0.0295745498094224,-15.8503616642415,-304.791470636736,52.1588996915204,-0.0184193784471903,0.0621123865968143,0.0015830048067478,0.0033405718327199,0.00434611141716928,0.120160645342618,0.0476294769696791,0.0316957210776548,-0.00128626226925038,0.00458312633906129,-2.14184919234047,16.7321479612589,-19.7611801376246,-18.211977161548,1.27684833733096,-1.12218370273878,-0.0820239482509254,-3.09157368211422,-256.005530254267
-0.0275871467445201,-0.188889947887384,1.04892020285215,1.73268210198621,17.0988890599877,-7.65858377336604,-24.7649005228517,-0.634736404197831,-0.199734316703642,-0.241019785217073,-0.0758423840101452,-0.0321014751628714,-13.488964008326,-284.487188824082,47.8583422595235,-0.0182156397503194,0.0395588033537326,0.00158342392372073,0.0039210488402247,0.0171900826446285,0.0945454545454565,0.0475163390132418,0.0316957210776548,-0.00127203478598744,0.00291895068803453,-7.41911491167984,13.8361861366506,-24.3283990655527,-19.0523732623953,1.7194155368171,-1.40702726579283,-0.107713200845629,-2.34483324345755,-243.6861648973
0.0465434290595047,-0.178811990717173,1.06457074415384,1.70381551817322,13.6885778400449,-11.5340307094986,-25.23019037821,-0.625558875568974,-0.881382001459092,-0.237534927622138,-0.334675149055505,-0.033084108327255,-10.5165378847324,-260.883799083252,40.5477267582375,-0.0178572543984868,0.0227318432378684,0.00158347631334234,0.0046459116449031,0.0165289256198347,0.090909090909091,0.0475173868056741,0.0316957210776548,-0.00124700801555455,0.00167732903511118,-11.2965639320003,11.6139173783406,-27.5896712991902,-18.5962095547911,2.03497757439866,-1.62202145087642,-0.134986213320524,-1.82106010105063,-226.614320553815
0.110276502968006,-0.169982943705442,1.06238658826543,1.68051453097111,10.5830198800248,-15.0473097600992,-25.6373117299671,-0.617164162274444,-1.38284986976592,-0.234347317802021,-0.52509069338736,-0.0321814264511628,-6.83953326533176,-235.254373258879,30.1932592263049,-0.0175890181299616,0.00211997247332212,0.00158347631334234,0.00547078623724633,0.0165289256198347,0.090909090909091,0.0475173868056741,0.0316957210776548,-0.00122827653705013,0.000156427762849252,-13.2825700983049,10.4097850394649,-29.1941758156591,-17.0571410592515,2.18839689164794,-1.72524216675989,-0.158505997934104,-1.13228714261939,-206.096518450753
0.20305433358556,-0.156818771670849,1.03230833476257,1.6684408726013,7.84536565268923,-18.1176946424784,-25.970338690354,-0.608924587452055,-1.7723107079645,-0.231218616594972,-0.67297533802455,-0.0296561781500142,-3.32360167526112,-206.658475403042,21.1228635693582,-0.0177210388711102,-0.012679717930359,0.00158347631334234,0.00625859517229629,0.0165289256198347,0.090909090909091,0.0475173868056741,0.0316957210776548,-0.00123749581111981,-0.000935606445067376,-14.5562837439983,9.49772949331364,-30.0834233818271,-14.5524476188489,2.28132916882464,-1.81646304645171,-0.172644245985117,-0.629972038342169,-180.156062145771
0.222252747776681,-0.144324061604636,0.997387205597678,1.66376115902084,5.55535848929252,-20.7273981694453,-26.2902049869874,-0.607663990697661,-2.04781454453943,-0.23073994740729,-0.777588646917218,-0.026180842336701,0.37320861439789,-175.732850729472,12.8911766831807,-0.0177734177225114,-0.0185658701482555,0.00158452410577466,0.00699244279708186,0.00330578512396699,0.0181818181818185,0.0475383426543205,0.0316957210776548,-0.00124115353173493,-0.00136993171807096,-15.5646783470017,8.58188410625487,-30.5936633185596,-11.4378622296192,2.34505922476802,-1.91817143571643,-0.177417813211428,-0.266457045370835,-150.313441371456
0.210789836748996,-0.141850348372896,0.955436216999239,1.66131355886447,3.68319894770868,-22.8669088764427,-26.5572750650792,-0.613812378009691,-2.16969335724661,-0.233074590543522,-0.82386802378441,-0.0217718169587668,3.67224101066093,-147.551126903977,5.36576752442528,-0.0177896977587038,-0.0245266008121547,0.00158478605388274,0.0077006195072756,0,0,0.0475435816164821,0.0316957210776548,-0.00124229039942873,-0.00180975995850067,-15.1197036410338,8.442937710749,-29.8254276589609,-8.24996535381228,2.28428679843209,-1.92837030206585,-0.176481832997586,-0.151746560527012,-120.4208810482
0.214413848038242,-0.14255179066785,0.924512867598841,1.65944338168757,2.28472775149505,-24.5829446601715,-26.8747499899186,-0.618366696270359,-2.05546381701794,-0.234803939611476,-0.780493200677871,-0.0171724307363023,6.69270904709796,-119.504974971606,0.556987117205844,-0.0178642463949253,-0.0176174795086575,0.00158478605388274,0.0083262825634242,0,0,0.0475435816164821,0.0316957210776548,-0.00124749628073849,-0.00129995221223945,-14.179347855118,8.5600026897977,-28.6126287321114,-5.20274853322669,2.17699668655431,-1.91101935684191,-0.16949616769575,-0.179392155385729,-90.2717335512018
0.188063967291421,-0.136186021291286,0.894780536020297,1.65661700505859,1.27083798978162,-25.8696849141998,-27.1479267185768,-0.623080014857807,-1.73235027622534,-0.236593663701812,-0.657801709079907,-0.0129638804446713,9.16766220748698,-92.394519989828,-1.68537995363882,-0.0178478343134016,-0.0118801478867726,0.00158478605388274,0.00881127948553395,0,0,0.0475435816164821,0.0316957210776548,-0.00124635019205345,-0.000876608059600841,-13.2384452745593,8.64974816739785,-27.3717370194136,-2.49893066070523,2.06290481415246,-1.89625492797224,-0.159104269257411,-0.234822222700168,-65.7811274616438
0.109201524242731,-0.141340899038768,0.882526208807623,1.65161919714267,0.567784171498182,-26.757341472461,-27.3322864767219,-0.625527997868741,-1.3245547450954,-0.237523202854771,-0.50295508192035,-0.00892687677031058,11.3995616151785,-68.7659058192241,-1.94456582473277,-0.0177686417424815,-0.0120767226900129,0.00158478605388274,0.00914303676441702,0,0,0.0475435816164821,0.0316957210776548,-0.00124082001543693,-0.000891112850153729,-11.6408581636387,9.16077560936105,-25.6234351020405,-0.319144489950077,1.8910611688306,-1.82212800181477,-0.146984688498384,-0.317388809909401,-44.2268515037515
0.0470039977797213,-0.151518197064193,0.870703044509052,1.64482703555761,0.135569826750127,-27.3317078198811,-27.4745320918017,-0.623437805872473,-0.928701204028524,-0.236729522796922,-0.352643023537733,-0.00519936434036772,13.4348019956687,-48.9153729549448,-0.875342099464878,-0.0176717670007737,-0.00396153381514812,0.00158478605388274,0.0093130410865608,0,0,0.0475435816164821,0.0316957210776548,-0.00123405505724579,-0.000292312225726302,-9.49444989335679,10.0711886074906,-23.4983684139476,1.28419296878301,1.6777609350454,-1.70254783458067,-0.136743160060741,-0.43161892350341,-24.6437623746588
0.00673808501028826,-0.157138538930973,0.858325118595603,1.63742167496934,-0.0770752933693682,-27.6366867824949,-27.5668932774072,-0.619049373738365,-0.583963693597629,-0.23506316340205,-0.22174055730007,-0.00207126707738995,15.0591324016558,-31.9468318806878,2.43724882635997,-0.0175675450322867,0.000877705101768712,0.00158478605388274,0.0094065565611453,0,0,0.0475435816164821,0.0316957210776548,-0.00122677702742105,6.47637869070543e-05,-7.35325275188689,11.0719078626246,-21.4709776319003,2.40292512105491,1.47734625435175,-1.58599549728621,-0.12500838837851,-0.456508588270445,-11.9160409364258
-0.0711551019412497,-0.163143087720511,0.862425904311902,1.63120119663146,-0.167427937316064,-27.6870305162002,-27.5267744030736,-0.61511422234794,-0.223411907749017,-0.23356892211284,-0.0848331522573613,0.000608500548687243,16.5655858422877,-18.5276864886873,6.09821098409284,-0.0175149472195688,0.00270830940735854,0.00158478605388274,0.0094518735838431,0,0,0.0475435816164821,0.0316957210776548,-0.00122310401629648,0.000199839755953429,-4.95589650351685,12.3124641168503,-19.3211601658412,3.025847373174,1.26471037776094,-1.4487923732853,-0.113854887206902,-0.415177668352856,-4.72362791784191
-0.0833389687472975,-0.172796572219847,0.859710235517126,1.62566074125872,-0.203028694786229,-27.5393785420548,-27.3433097927482,-0.61298996698835,0.0392706676881968,-0.232762307639291,0.0149117142627135,0.00275159625242056,17.9252610407315,-7.19021376707062,10.6620988861751,-0.0174589063985832,0.00624296633730231,0.00158478605388274,0.00947204358816524,0,0,0.0475435816164821,0.0316957210776548,-0.00121919057297491,0.000460653744318218,-2.73544335178348,13.5117375572755,-17.380238644471,3.34729373553058,1.07643056699482,-1.32585261957636,-0.10405797471888,-0.369321594752306,-0.512808892131269
-0.111299638329591,-0.180038314133294,0.865847359089511,1.62100948011182,-0.203830126057521,-27.2115211362223,-27.0149234754309,-0.611814065415094,0.189458941763418,-0.232315798595934,0.0719406562303315,0.00411621075839214,19.095906201328,2.50297572984364,15.8965348429094,-0.0174362192955419,0.00342791278890467,0.00158478605388274,0.00949352333302779,0,0,0.0475435816164821,0.0316957210776548,-0.0012176062869077,0.000252937590255786,-1.20915679990462,14.3192873898926,-16.0292933353534,3.48680290522787,0.948600952473325,-1.25272406803052,-0.0958697543050777,-0.291797911461714,0.114141393823698
-0.11653775974965,-0.186346467915633,0.86412847224452,1.61666883363995,-0.207105724146829,-26.7557701845723,-26.5561176997248,-0.609861502159879,0.196928444436126,-0.231574378420121,0.0747769484580156,0.00533609184654446,20.3225177996467,11.7755762951051,21.1017512901557,-0.017373184124458,0.00195510301104614,0.00158478605388274,0.00949561891789243,0,0,0.0475435816164821,0.0316957210776548,-0.00121320441404139,0.000144262434539316,-0.146988460716517,14.8730883874106,-15.0809614620682,3.77326153656459,0.854014104026879,-1.20691352434699,-0.0919122083048275,-0.368978748974654,-0.119049926513527
-0.110299984874035,-0.185021312385162,0.864180858718581,1.6124044607222,-0.207018638477459,-26.0574783626892,-25.8576891980309,-0.609424963356062,0.202134275844231,-0.231408617502614,0.0767536877147525,0.00451510538103733,21.1511746140893,21.0371496060621,25.7168612997071,-0.0173846462534716,-0.00105657919024567,0.00158478605388274,0.00949561891789243,0,0,0.0475435816164821,0.0316957210776548,-0.00121400483757999,-7.79624835147993e-05,0.323387683029214,14.9487894313842,-14.4914501841399,2.953006351129,0.797697890218659,-1.22130789272178,-0.0928613136327256,-0.0923978697907032,-0.515412245111997
-0.0938885769349181,-0.191997951461118,0.872062875735956,1.61177797718063,-0.208841264138504,-25.4140471564944,-25.2125687973585,-0.608902542322521,0.13770566553187,-0.231210245699037,0.0522890915191956,0.00623682047958377,22.0085544024017,31.1455982661322,28.5673470977077,-0.0173151817412265,-0.000686210840229198,0.00158478605388274,0.00949561891789243,0,0,0.0475435816164821,0.0316957210776548,-0.0012091539908802,-5.06338775294318e-05,0.00294989205838069,14.6842480694185,-14.680076292062,4.27288074092685,0.79412141151522,-1.26181690833093,-0.105270483735708,-0.416008518151058,-0.190126840304433
-0.0880909304191358,-0.185671027845328,0.871598530303205,1.60653534210865,-0.20956917081419,-24.2844240949279,-24.0820716477492,-0.608762117673252,0.072461089157265,-0.23115692416496,0.0275146596756974,0.00236462440438838,22.2630621259573,40.2234885890474,29.0843666740843,-0.017420302082541,-0.00129473493923536,0.00158478605388274,0.00949561891789243,0,0,0.0475435816164821,0.0316957210776548,-0.00121649475588762,-9.5535433868143e-05,0.218854355620753,14.3988637424458,-14.0893569445425,1.50707433703824,0.751026662344909,-1.32140243422198,-0.118730035961641,0.276073441933681,-0.514910273003755
-0.0648639200144026,-0.189548149970348,0.890103577080126,1.6101875741195,-0.217214330955537,-23.5720097997973,-23.3623542737444,-0.607579677529765,0.0226904580336637,-0.230707932319636,0.00861593771143799,0.00762782168858951,22.9753909315891,50.9234794720691,26.935508156886,-0.017206372996291,-0.00130792623925819,0.00158478605388274,0.00949561891789243,0,0,0.0475435816164821,0.0316957210776548,-0.00120155565722435,-9.65087887477994e-05,-0.709869406766852,14.0091253572149,-15.0130322997783,5.4612824915375,0.793193203322756,-1.35480062520836,-0.146579014978512,-0.823847042818186,-0.405093966480724
0.00673444421828901,-0.201255753374464,0.944703085030583,1.59984690369477,-0.214661363856276,-21.8183740494559,-21.6109290961028,-0.606941461357847,0.00317445491691611,-0.230465591209751,0.00120539240729911,-3.90517311294798e-05,21.9350705687446,56.3803115069005,23.9618136372539,-0.0174944388489054,-0.00141128462528954,0.00158483844350436,0.00949582847637889,0,0,0.0475435816164821,0.0316967688700871,-0.0012216718754963,-0.000104135359989668,-0.342545756679452,13.6059756375237,-14.0904084923532,0.111097279182766,0.811399893428656,-1.4364927163614,-0.177706044805852,0.877022362743158,-0.57800692258644
0.463159353244249,-0.425453293224279,1.40487513120471,1.60209580605473,-0.231887813322521,-21.6010742090681,-21.3766116243431,-0.593946735520623,-0.0207969294262782,-0.225531281456082,-0.00789693395612132,0.0315945429099347,19.1068474158768,53.1059104099106,29.063368515435,-0.0167737558249119,-0.00216220766740799,0.00164322667679533,0.00914969024636221,0,0,0.0475435816164821,0.0328645335359066,-0.00117134512942777,-0.000159544198089565,-7.9245923617705,10.7518175911768,-21.9588835854709,24.1723811445716,1.72871847871203,-1.53730819109015,-0.329220334967442,-3.27217147591815,-0.934938021251739
1.07322452501523,-0.643655427326196,1.96926906017552,1.4680543146701,-0.23251751615743,-19.4462921091355,-19.2208339651428,-0.509620535217164,-0.0475536678274974,-0.193511245184494,-0.0180569047722293,0.0894273643404719,13.5530176975438,40.9894553979235,42.8079294752669,-0.0142474985711923,-0.00329402560010392,0.00199958088302707,0.00701575617870101,0,0,0.0475435816164821,0.0399916176605414,-0.0009949315008574,-0.000243058370746179,-22.9343922123378,3.43855848547295,-35.872686996945,66.8027416726432,3.33425763838814,-1.4091316783413,-0.515200247484508,-10.2978959965525,-1.46810962025939
1.01088729512768,-0.588899093319525,1.64743704632386,1.11499523120286,-0.287788025201306,-21.3044810018092,-21.0245942598677,-0.30660155679036,-0.086992160265624,-0.116421621441774,-0.0330323448349987,0.261211371233335,19.6379597790869,50.1677778966992,33.4788414779271,-0.00293666657747918,-0.00397498191008708,0.0023771790808241,0.00475435816164821,0,0,0.0475435816164821,0.0475435816164821,-0.000205073337670432,-0.000293304528896441,-45.7685211629196,-4.76556464798993,-59.960898710371,191.401347887143,4.69220246080229,-0.48568327245086,-0.589558399755849,-41.8744831153857,-1.27681962980203
