accel_x,accel_y,accel_z,angle_ankle,angle_knee,angle_shank,angle_thigh,current_ankle,current_knee,current_qaxis_ankle,current_qaxis_knee,ground_reaction_force_vertical,gyro_x,gyro_y,gyro_z,impedance_current_desired_ankle,impedance_current_desired_knee,impedance_damping_ankle,impedance_damping_knee,impedance_equilibrium_angle_ankle,impedance_equilibrium_angle_knee,impedance_stiffness_ankle,impedance_stiffness_knee,impedance_torque_desired_ankle,impedance_torque_desired_knee,loadcell_force_sagittal,loadcell_force_x,loadcell_force_y,loadcell_force_z,loadcell_moment_x,loadcell_moment_y,loadcell_moment_z,velocity_ankle,velocity_knee
0.200000024706609,-0.235194199734699,0.36591393563845,-0.512407384993206,0.825559518904283,-12.1751054484706,-13.0042677003232,0.35260095599099,-0.243804174671476,0.133888345017306,-0.0925764292479912,0.155414077085764,1.80586844536903,28.2188328410034,-6.66042888394584,0.0101040842075297,0.00493481064045853,0.00395186040897962,0.00480706231249351,0,0,0.0530530699936167,0.0473464602227661,0.000721598649141961,0.000372390248654375,19.0441151186166,26.3788431936431,0.553602690499023,92.1242542537178,-0.188460173661386,-1.5187837911921,-0.263742775851871,-37.0904785620164,0.0636828574129093
0.70109867103946,-0.372467345776832,0.816879136374747,-1.86888432539458,1.67522428601098,-24.0956359211909,-25.7782616634416,1.05228982966778,-0.366774741234527,0.399571644316137,-0.139270362895148,0.338782036789978,-0.129167052608204,56.8775795919229,-30.5874083599788,0.0775382177228125,0.0154157596870217,0.00395186040897962,0.00480706231249351,0,0,0.0530530699936167,0.0473464602227661,0.00553751057656079,0.00116330270831074,31.7554681842769,45.9556327505239,-1.04661896481226,210.428047717156,-0.239793472586206,-4.48771930063032,-0.728472866274106,-89.205453389366,-0.203158740002989
0.60919199637435,-0.125510197029802,0.902872789855594,-3.00276796423631,1.44557341805455,-20.3656803361269,-21.8182564994026,1.77307819954228,-0.000696064076464896,0.673266767118595,-0.000264306904562861,0.355200669011079,-2.09659678894669,51.8123618283017,-57.2931404963495,0.112318559655045,0.0129149572711879,0.00395186040897962,0.00480706231249351,0,0,0.0530530699936167,0.0473464602227661,0.0080214019653807,0.000974587375277975,20.665865815479,35.4432229825468,-6.21727526811397,221.658598941476,0.672880992683022,-5.19226699706338,-0.808288336248869,-86.0571581744107,-2.55764969789593
0.147791074360879,-0.0213136910979128,1.24421437377915,-4.23404434261399,1.52151064079515,-21.0766857985485,-22.6054643591176,3.15041128834539,0.250661127673153,1.19626264862192,0.0951801263556061,0.435448415314159,-2.16734129459835,61.1701786205886,-61.922373781975,0.115340079988054,0.0126607654684122,0.00395186040897962,0.00480706231249351,0,0,0.0530820537479939,0.0473464602227661,0.00823718846773681,0.000955405575703846,16.7463174862119,37.0697778412714,-13.3869085324648,276.009712816187,2.05894056902124,-6.28247935863367,-0.992353236768392,-76.8675390713318,-1.56552997100845
-0.219766603354406,0.153670843711725,1.35542459200401,-5.0461023444125,1.45068454550599,-19.170775912145,-20.6286363351538,4.24883334432772,0.403359732812514,1.61335145313933,0.153162282050846,0.510606524644668,-0.463283270242494,61.7476546713775,-40.6558582604193,0.113036437128144,0.014592933402269,0.00395379151005207,0.00480899341356596,0,0,0.0531193185750503,0.0474468774785335,0.00807267028462648,0.0011012106632247,7.48339024428798,31.6903090761813,-21.1071971001787,324.60209034642,3.49000652722856,-7.1028380105875,-1.27882466660073,-58.5247044901612,0.539672252904642
-0.375476394732833,0.0582974693649708,1.28149415643601,-5.82382225650665,1.49993843181106,-18.8406871486113,-20.3479692219018,5.27211877703505,0.449838081508436,2.00190965395432,0.170810870576492,0.639256636951789,3.21162298386264,60.4202227354695,-14.7966790370332,0.104231081148035,0.015252632070107,0.00394582571812821,0.00482292492844579,0,0,0.0531491598870203,0.0478413048725816,0.0074438223009838,0.0011509927863601,2.46112851920594,32.499429348675,-29.0188680180708,407.992727814722,4.72256041382723,-7.18305256318502,-1.67145571734457,-38.8571508742546,0.175165011805842
-0.327788143666362,-0.0736370462645849,1.18383881415319,-6.12376186613212,1.44509374623832,-17.5665602368381,-19.0185981552016,5.62261442074743,0.46314744423792,2.13499857749548,0.17586465309979,0.763629031279786,4.19163374308471,54.1282684001875,-3.05610790078647,0.0889844431163994,0.012903579170212,0.00390613469429981,0.00484527052656986,0,0,0.0531815640844607,0.0483000103451841,0.00635496029413456,0.000973728762017942,2.18744524149463,37.596441833239,-34.5029271057688,484.123007068884,5.24677329588883,-5.62628963904252,-1.87926031528905,-13.5470096804195,-3.02921070572854
-0.137686594789957,-0.0384099710791695,1.09700838471047,-6.08623169662783,1.35697031640655,-16.9993546205027,-18.3636798384718,5.29813626958264,0.38094664081903,2.01178892103942,0.144651664757441,0.890534705812368,4.54845098761879,49.3294923952,-1.02194706061365,0.0683648949663935,0.00658497685163914,0.00386727128521674,0.00486051243146313,0,0,0.0532336085671262,0.0485896065381563,0.00488238368200837,0.000496914946859511,10.1208118611622,53.170592627576,-38.8576032312938,560.552894639253,5.57714274932419,-2.5480875066788,-1.94244004434187,9.03651926553082,-9.59516527701538
0.0887253095085768,-0.00698940898057166,1.00040748617232,-5.7525126821193,1.14069816062752,-16.1382553402933,-17.2862609889182,4.54201455954788,0.199928465261209,1.72467715157843,0.0759161053901317,0.990787840410932,3.69871973821422,45.902997072374,-1.06101435267359,0.04644218907998,-0.00273519960011811,0.00385958136487465,0.00486223662884925,0,0,0.0533026973621319,0.0486223662884925,0.00331674006421432,-0.000206403392838734,21.6054732720443,73.5363930604368,-42.9816397376223,618.050761882015,6.11847782391772,1.2759760739384,-1.94743740373488,29.7915395074645,-17.4100141114325
0.256012021420227,0.0413536324575844,0.968773701001472,-5.23494105381529,0.850194556737903,-15.5278422694961,-16.3849146923359,3.55042761458322,-0.0874142656009265,1.34815538456009,-0.0331926251286463,1.05885091878456,2.19434774711005,46.6019036360622,-1.85601613671669,0.0290128966709819,-0.0118403090123397,0.00385875375012932,0.00486223662884925,0,0,0.0533941095538589,0.0486223662884925,0.00207200045204237,-0.000893492362422264,33.3405669597597,94.1314504521367,-46.9807684804362,655.913133361175,6.92525948959644,4.65458138596913,-1.98731790940235,40.8417558327158,-22.60864213036
0.335867186945839,0.0266301538813347,0.939335818185493,-4.5834898102783,0.527939117014506,-14.7484249526956,-15.2836336734633,2.47841154022296,-0.413219070082573,0.941093362777844,-0.15690603352862,1.10076219386343,0.808511186593576,48.2835465748255,-1.24842668146612,0.0163655901055882,-0.0163252078207659,0.00385875375012932,0.00486223662884925,0,0,0.0534986440626975,0.0486223662884925,0.00116877368300265,-0.00123193140378422,43.2651469679287,111.887575741157,-50.7014181210467,677.575934533224,7.83125652635498,7.4007219691584,-2.09327011399914,45.3402505964505,-21.5290871507042
0.254723087121481,0.00881244110707829,0.946165523501026,-3.9699244437903,0.281114040785343,-13.990726179703,-14.2790187790552,1.54769551033129,-0.637794540416471,0.587685276934603,-0.242181009513815,1.11942808123057,-0.628825274891024,49.8727231138749,-1.46511815411522,0.00847507763646346,-0.0138587787858259,0.00385875375012932,0.00486223662884925,0,0,0.0536510481044249,0.0486223662884925,0.000605260649875406,-0.00104580995181208,48.7878654804837,122.52858610787,-53.5321250661354,686.122801761817,8.53881305106571,8.99296293434624,-2.25997812796168,44.8747484553875,-15.1415036619934
0.180111235711019,0.00308958039428086,0.944994348968959,-3.35966466737592,0.13271193223468,-13.1735038349,-13.3135243462308,0.803706094657786,-0.688815563404539,0.305180337902438,-0.261554525702288,1.1224885473638,-1.57390238875533,50.5005773380438,0.176944596176488,0.00270337967884234,-0.00839604200868448,0.00385323631849375,0.00485478809614123,0,0,0.0538658873399018,0.0486223662884925,0.00019306600027311,-0.000633581387235574,50.4427060934521,126.848079433686,-55.5113203535265,685.972351558899,9.04578881027109,9.82058101932505,-2.47097760045352,43.2218631998736,-8.38257004176066
0.181300670704445,-0.0124918012909275,0.944171039733204,-2.7263342855956,0.0491984693120982,-12.34539173327,-12.4023248997109,0.23999049172114,-0.576584694253634,0.0911283115104594,-0.218938630665258,1.11382452037697,-2.52971877263311,50.8502331038199,0.843251359938656,-0.00436808184510162,-0.00440161042806804,0.00384702920790372,0.0048464084968447,0,0,0.0541804551372368,0.0486223662884925,-0.000311953255141909,-0.000332153940892784,50.2716389984151,127.42813980731,-56.3333061330276,679.127883348201,9.33548926737063,10.3158441275926,-2.65970064602985,42.9592050512094,-4.44660719800675
0.149496910044907,-0.0184943730927487,0.944853346024927,-2.11634186443282,-0.00957389046411375,-11.5169804132378,-11.5143879149752,-0.159413419722152,-0.415142495748001,-0.0605318805224494,-0.157636389685438,1.10154355910276,-3.34880624311747,51.0862482537469,0.454935385986974,-0.0127854513838052,-0.00336637921041815,0.00384496017104038,0.00484361529707919,0,0,0.0545312433990593,0.0486223662884925,-0.00091309259282981,-0.000254033413350193,49.8327138414636,126.706856666287,-56.2327569018316,670.285271694989,9.46912272259555,10.7553049813493,-2.79904977164588,44.5103049595878,-3.27016083725307
0.137848972223095,-0.0273399383599883,0.944167340897534,-1.44702185220234,-0.0490141673566168,-10.6473160780002,-10.6055804866352,-0.5248639319484,-0.270468386853492,-0.199299412023269,-0.102701266346651,1.08744651302334,-4.00715158275034,51.3061241825006,0.771192638433148,-0.0224154021003386,-0.00306947387569957,0.0038422014552226,0.00483989103072518,0,0,0.0550266025602776,0.0486223662884925,-0.00160083027252726,-0.000231628368966891,49.4166941398323,125.452182962867,-55.5664239026731,660.446830602434,9.5255875083974,11.1319436240891,-2.91450183190885,45.9803579528838,-2.52955991977825
0.11509163826472,-0.0388482431465597,0.946473383055222,-0.792761506550404,-0.0826353901577332,-9.81916786795021,-9.74376027612157,-0.859350557339736,-0.173564503074991,-0.326309449696604,-0.0659052781214111,1.0778169052836,-4.51935581370208,51.2518137683675,0.426264175950937,-0.0315374882966795,-0.0026734415308853,0.00383558053725991,0.00483095279147555,0,0,0.0556236450802354,0.0486223662884925,-0.00225229802966756,-0.00020174301082337,49.0128796063111,124.201485707974,-54.8868066377688,653.593727321352,9.56552696905687,11.4136586274408,-3.00296403489815,46.7305938734829,-1.82285975136904
0.114019276070069,-0.0465243072431125,0.948810951538661,-0.124986045020057,-0.109361352517773,-8.97561640348026,-8.87380137452779,-1.22153673650339,-0.120602629720885,-0.463837460589466,-0.0457947893325531,1.07211888768566,-4.86344212643551,51.2274231315742,0.653143730949116,-0.0398890197278577,-0.00244889756836901,0.00383116659195145,0.00482499396530913,0,0,0.0563315411990515,0.0486223662884925,-0.00284873543806859,-0.000184798493976112,48.5745491369894,122.950934209445,-54.2561480337558,649.301397470971,9.60995493665298,11.6212919157847,-3.08657000784553,46.2979208259238,-1.37111458652112
0.108898451630077,-0.0492377666041708,0.951991049062044,0.52020968460804,-0.127714060895134,-8.16503475365732,-8.04525499144085,-1.61234486179959,-0.0953810944556411,-0.61223369215431,-0.0362177602346926,1.07201275428874,-5.05983559962421,51.1990892338933,0.655365036334353,-0.0473066696620055,-0.0022087126485631,0.00383116659195145,0.00482499396530913,0,0,0.0572453731846938,0.0486223662884925,-0.00337847826902206,-0.000166673680578765,48.2316399117918,121.974345217207,-53.7645059184558,648.589263482225,9.68663070427814,11.8214046114004,-3.16436500812467,44.7919214339995,-0.899959615736549
0.0938529690571915,-0.0514974537059574,0.954438411665542,1.13923862419147,-0.137443835043201,-7.36763194537752,-7.23761819396004,-1.99600296584459,-0.0680392871272604,-0.757914943808022,-0.0258356291860392,1.07599166711224,-5.2446018776127,51.1207634699222,0.755230910243471,-0.0537558248385185,-0.001872334274285,0.00382426980240698,0.0048156832994241,0,0,0.0584317840955096,0.0486223662884925,-0.00383905456350807,-0.000141289925138914,47.8419580447793,121.029390443608,-53.3706445261966,650.508731225183,9.79515538692649,12.0670190296896,-3.24166349122374,42.6631205871695,-0.519521526120074
0.0824778899236897,-0.053117983783082,0.956326071692974,1.74245778133901,-0.144086650363471,-6.57202529339196,-6.43554934629452,-2.35830435970238,-0.0472856302568078,-0.895486703603028,-0.0179551265265032,1.08282121908639,-5.36582584339546,51.0756011250562,0.885853082125284,-0.0606229645705589,-0.00179920771746241,0.00381737301286252,0.00480637263353907,0,0,0.0601109720947405,0.0486223662884925,-0.00432948186521411,-0.000135771655308022,47.4946947736592,120.108487402133,-52.9408459124541,654.270273932219,9.92153936876507,12.4212806711146,-3.31732322924941,40.9880782693182,-0.421888996078907
0.0754215301956701,-0.05771328148197,0.957793998991403,2.32167579578715,-0.149066778620373,-5.78650812763597,-5.64473710928028,-2.7423783839591,-0.0327949364965994,-1.04132588695789,-0.0124527733061209,1.09126884039865,-5.48379095531781,51.1328935319718,0.903068574312721,-0.0681983100496891,-0.00174389403159549,0.00381061415910894,0.00479352391461772,-0.00013647358900774,0.000625503949618807,0.0626527773249101,0.0486215194387685,-0.00487048676503971,-0.000131597578786201,47.3629255364794,119.377278164026,-52.3959865166694,659.103178896973,10.0468834018374,12.925528666043,-3.38297114960771,39.9071599266329,-0.267117393212008
0.0579170804246178,-0.0613957195136328,0.959713918476572,2.88855808647212,-0.151968935394532,-4.99797935102691,-4.85369606477767,-3.13599488819047,-0.0267832800128586,-1.19078850589753,-0.0101700490997771,1.10036857793252,-5.54081208215616,51.2122247142209,0.803737620725658,-0.0762180400939437,-0.00157255656517933,0.00379778613055623,0.00476801269009274,-0.00027294717801548,0.00125100789923761,0.0661637314444707,0.0486206725890445,-0.00544322806920508,-0.000118668125891004,47.4122688465975,118.718539849085,-51.6674662233477,664.423496123546,10.1533104517209,13.5512598157878,-3.44107912727563,38.8212933698047,-0.0724789941442237
0.0462825030730268,-0.0657496782524582,0.96083322757768,3.44773249290992,-0.152161233688484,-4.2134499242648,-4.06886373197594,-3.53270858899878,-0.0200515895322397,-1.34142718099027,-0.00761391621838512,1.10885647169882,-5.58250589013907,51.2939150594665,0.758482648473265,-0.0850611749025124,-0.00151050128644851,0.00377833718404083,0.00472834925342251,-0.000330300121246363,0.0015138755557125,0.0703357587057263,0.0486203167009602,-0.00607477408574442,-0.000113985315878513,47.4624656365326,117.972233450211,-50.8501708433595,669.487594257958,10.2376270055617,14.2438214629864,-3.49044886426252,38.2018967058615,-0.0460418280625646
0.0337032330088413,-0.0687593606410239,0.961349426551358,3.99931565262963,-0.15284280144173,-3.43036532213237,-3.28433571778279,-3.96755076350477,-0.0155003363308406,-1.50654386062236,-0.00588573100352256,1.11673869248646,-5.58298226714728,51.4284068508241,0.573133995744456,-0.0957348015172175,-0.00154094394079896,0.0037503362184903,0.00467304389806543,-0.000365047165683847,0.00167313284271763,0.0749488603076326,0.0486201010876302,-0.00683704747820854,-0.000116282576796758,47.5991650983111,117.253550378882,-49.9381655392141,674.296295914615,10.3072246121704,14.9837373695944,-3.53286837813248,37.9315017174151,-0.063639175422155
0.024954703230335,-0.0688507778658834,0.961955707947045,4.53814280950374,-0.153479304304021,-2.65017065132211,-2.50380805992789,-4.45729560442757,-0.014239445301015,-1.69250797988468,-0.00540695007465059,1.12348114192471,-5.60007968753848,51.5373100466019,0.429483724368851,-0.107668259611369,-0.00153738824194704,0.00370874857753716,0.0046015379840684,-0.000669414003033515,0.00306814751390361,0.0798030642761979,0.0486182124220351,-0.00768929366534093,-0.00011601425696119,47.6818992104214,116.436326174322,-49.0039376312368,678.538313659932,10.373207140907,15.7314563182557,-3.57624945095821,37.6992461189815,-0.053446373193078
0.0157191355471223,-0.0684017317372685,0.961124406536295,5.07983686422494,-0.154164148161072,-1.878842792075,-1.73205789027718,-5.01991924840838,-0.0141353398004061,-1.90614537161688,-0.00536741951482965,1.1291936598356,-5.61556352653252,51.7371191062937,0.153069250222704,-0.120354292981649,-0.00154368307671574,0.00362950446567123,0.00448832028690643,-0.00118947667471292,0.00545176809243421,0.0847377134992399,0.0486149853146279,-0.00859528616846579,-0.00011648927723158,47.6077797575954,115.483040856601,-48.1554730489387,682.280877134727,10.4460997983087,16.4702521508981,-3.62885738358077,37.3517071848841,-0.0588285019525802
0.00472826970121564,-0.0671503568400948,0.961247102231267,5.61600623386885,-0.154999485105217,-1.10936443835054,-0.961602925022122,-5.6539361349956,-0.015190868208426,-2.14689194423921,-0.00576822090026929,1.1344831598227,-5.66044694364199,51.9233038269605,-0.215065715023501,-0.134953103066911,-0.00155548724579089,0.00339597917169558,0.0041723162867685,-0.00173796181914491,0.00796565833774749,0.0896600063914487,0.0486115818392994,-0.00963788255030857,-0.000117380042405225,47.4249939102903,114.390316188978,-47.3212466055838,685.886937096192,10.5171256995661,17.2072243003128,-3.69524675887904,36.7851288450427,-0.0657438108147668
-0.00697634816965836,-0.0673762162856459,0.963314260996289,6.11391551382656,-0.155959392835651,-0.342328010295382,-0.19381114832921,-6.30813997787672,-0.0162683662640974,-2.39530383405142,-0.00617736451993915,1.13943447559163,-5.73456888866932,52.0435785724023,-0.59787707698839,-0.148985894814226,-0.00160415683416191,0.00301155212248698,0.00365333977033689,-0.00255845683960807,0.0117262605148703,0.0944512766407979,0.0486065637933957,-0.0106400558656306,-0.000121052742623304,47.2118500889979,113.243526003707,-46.4758873031208,689.403708726028,10.5710295094199,17.9657541215392,-3.77962798204575,35.6464812983073,-0.0720314840502338
-0.0145771767187806,-0.0676043052450517,0.966629232862718,6.60328013231678,-0.156625661081143,0.420062430957559,0.569231656073676,-7.03798291533884,-0.0163384744208087,-2.67243712413209,-0.00620398573271468,1.14475837281397,-5.82317535320068,52.0951758835864,-1.03605816229919,-0.162164414833893,-0.0016272899952355,0.00256105382944239,0.0030451670747267,-0.00635913493112397,0.0293302752354292,0.0993041035246355,0.0485623908021556,-0.0115812200571161,-0.000122798415199619,47.1799006343691,112.171453490066,-45.4489981415262,693.260440126636,10.5961106060311,18.7802190016565,-3.88687309165365,33.4684205954953,-0.0610459451705508
-0.0262207756452116,-0.0686150780988147,0.968009324300846,7.05570607880922,-0.157093372969165,1.17359963064991,1.32352688535197,-7.7995322611486,-0.0164675695841303,-2.96160985559254,-0.00625300527583613,1.15096016718941,-5.93244779837522,52.0797657277744,-1.66321795616187,-0.174253562631349,-0.00163658198741023,0.00218835132245939,0.00254201869029966,-0.0105512486189135,0.0488194863751769,0.103712569089961,0.0485086283729797,-0.0124445850628651,-0.000123499606699871,47.5101546926828,111.335351495708,-44.1458463788723,697.769181105237,10.5841416244578,19.7207879103167,-4.02253259354794,30.6763744470086,-0.0431629507221017
-0.0328634331233204,-0.0671972041142652,0.968822492928622,7.44442977753696,-0.157719215915599,1.91383458042335,2.0640239678936,-8.5478377695148,-0.017138290405947,-3.24575368555154,-0.00650768893246235,1.15762831532918,-6.06814472232799,52.0817758855956,-2.35828663662011,-0.184826724642117,-0.00177612937131366,0.00190882444222214,0.00216456429532053,-0.0215525417935593,0.0995411156639767,0.107719590559282,0.0484903045108771,-0.013199683621767,-0.000134030119170768,48.1533756884727,110.695263005581,-42.596106032896,702.685919627068,10.5337237600861,20.793830047777,-4.18616842040847,28.2921577508857,-0.0546609128850649
-0.0417943005555945,-0.0620421412543859,0.967141384796864,7.85613230075752,-0.158020332557188,2.64667432364783,2.79714157899189,-9.27008517702301,-0.0215030124145651,-3.52000282878638,-0.00816504520522703,1.16484278487579,-6.29663239104994,52.3124271220337,-3.20231941492307,-0.197542823188131,-0.00194058559912057,0.00171261077968206,0.00189772061105556,-0.031721574616583,0.147397562152173,0.111480807443588,0.0484639161495669,-0.0141078232754648,-0.000146440300640282,49.0225578186383,110.199754699323,-40.8713885699853,708.071559704977,10.4574748018974,21.960817617653,-4.38911967391893,26.5743674427299,-0.0246389255197129
-0.0436701886282738,-0.055420412240971,0.968457791642452,8.23949891216886,-0.157322362941375,3.36573468523829,3.51581123403994,-9.99530992255611,-0.0263840247778274,-3.79538251592343,-0.0100184453626075,1.17168123185389,-6.66540792397492,52.7788995715479,-4.00465055944911,-0.211570702821846,-0.00210619966527927,0.00159198593054933,0.00173292182489052,-0.0460889755341376,0.215043242304678,0.115088236874418,0.0484070966939903,-0.0151096457846707,-0.000158937854806164,50.086197511242,109.830756443467,-38.9981766353707,713.362697316085,10.3493223811351,23.1938289148029,-4.62297726037394,25.3140787459645,0.018160392081173
-0.0352782054962149,-0.0484108060984633,0.974191251231296,8.57916801979531,-0.15608532369863,4.06257344990367,4.211195649902,-10.6968065366294,-0.0318172784026956,-4.061752243792,-0.0120815405514687,1.1776033729072,-7.17100090679816,53.4301692455867,-4.82804091099194,-0.224839065934124,-0.00254161378171928,0.00152115590192766,0.0016366495396393,-0.0649592987409504,0.306372927959341,0.118438363843636,0.0483209069822938,-0.0160572262582192,-0.000191795036753403,51.3922405779707,109.587673162929,-36.9080695368214,718.221860619321,10.1998243951587,24.4495080738388,-4.87831474086315,23.1906464895423,0.0801655745669384
-0.0203047446695837,-0.041402362414987,0.984555550216454,8.89392660932432,-0.152981225563549,4.72602312268651,4.87134170480357,-11.4137838075758,-0.0406789784898286,-4.33400023005238,-0.015446472888,1.1821626324976,-7.84269651103667,54.3962552012289,-5.81516977681559,-0.239970257961008,-0.00299466031757038,0.00145229145832615,0.00154112210765889,-0.0867558459157409,0.41373979995837,0.121458694814961,0.0481969552278746,-0.0171378435118215,-0.000225982794791048,52.9728366444034,109.359172438064,-34.444268418174,722.356307287256,9.98555980733334,25.7176263256903,-5.14416442203022,20.1533119559883,0.256493404730761
-0.00275618775511511,-0.0386203173469616,0.995158979335206,9.14542673182921,-0.146595985395922,5.3526115521318,5.49135538143032,-12.1354957877206,-0.0519856533479045,-4.60804606276765,-0.0197398020996067,1.18490601028542,-8.60538231039112,55.7815478185411,-6.68360507825006,-0.253094176104667,-0.00351043832787366,0.00138708231318322,0.00145006379530329,-0.119023445489211,0.57877826676028,0.124096680082796,0.0480502330882337,-0.0180751082267035,-0.000264904389863529,54.7595745990635,108.997413818159,-31.5556807503824,725.468027486475,9.68612013474181,26.9696136970659,-5.40398590461863,16.5526758297507,0.45502360304973
0.0128341458929006,-0.0481966905299942,1.00414214815436,9.35036235160959,-0.135754490853975,5.95775330268488,6.08591790093222,-12.8930607036632,-0.0697443211138944,-4.895705841096,-0.0264830584535722,1.18417576299883,-9.389030508331,57.660203651505,-7.27504804744452,-0.264740639663286,-0.00395497444744998,0.00133166660919343,0.00137315769509293,-0.162503795119386,0.810115293085634,0.126212844234861,0.0478745552448184,-0.0189068582595187,-0.000298449935613081,56.6930109681833,108.255457296536,-28.0794322935645,726.563198691099,9.25688628684254,28.1600004724521,-5.62909884685783,12.4228255419905,0.684981221419493
0.0153285095965536,-0.0658497746674951,1.00695356733739,9.49926192175897,-0.121280944597013,6.54923904881852,6.66281704633954,-13.6512899334411,-0.085298000879111,-5.1836178702435,-0.0323890448308389,1.17847606948415,-9.96131602092325,59.9488255000844,-7.6887713234756,-0.274712932685145,-0.00526713020863156,0.00126342287665092,0.00127651298320631,-0.221946979255827,1.12767563754646,0.127970802259293,0.0476324759196511,-0.019619044839284,-0.000397467718823153,58.4612772716591,106.682770675824,-24.0060394845902,724.701634794605,8.68433205544967,29.1789744469632,-5.79058267024449,8.67823548923302,0.918347440975525
0.0113384044210712,-0.0826044962320958,1.0108026143259,9.5956941470023,-0.09907177228419,7.16972388518863,7.26119498166039,-14.3649050294584,-0.112111304302032,-5.45458918374033,-0.0425704943100443,1.16544901695185,-10.4584312731366,62.7397661151109,-7.56605099092834,-0.282192445121106,-0.00665236433217365,0.00121773164591883,0.00120742784233939,-0.311755053459621,1.59946341747198,0.129405760011427,0.0472158176601936,-0.0201532056755534,-0.000502000135017836,59.5896726022688,103.880868633243,-19.6083454617416,718.474713852956,7.98726099248523,29.9116384093377,-5.86233241769598,5.47532823226467,1.54332557011543
0.00123260655335959,-0.0922165333942312,1.01086297659421,9.65774200461482,-0.06169783781015,7.83663671052769,7.89087317808748,-15.0024956854321,-0.14953225527526,-5.69669277499945,-0.0567798409089437,1.14310380133906,-10.7671427967276,65.8825056188035,-7.19374658289769,-0.288452332540884,-0.00864882770408365,0.00118900651746612,0.00116031587296113,-0.46066704103112,2.39559624745496,0.130526206614742,0.0464777304166918,-0.0206002651233088,-0.000652657079257917,59.5000289759138,99.5324120490337,-15.3866641097043,706.606309829856,7.23271775758992,30.2466468720824,-5.81897027502338,3.1799624601879,2.32319415471905
-0.0157956126122309,-0.0939907315009066,1.01536835851326,9.6959018764901,-0.00974751371027606,8.55744712424467,8.55965447449789,-15.5387350181499,-0.194209953477173,-5.90031161258594,-0.0737446930166889,1.11091176771907,-11.0673883618763,69.1746660922622,-6.79689030844497,-0.293596198789127,-0.0106888224957386,0.00117462671126591,0.00113325976757819,-0.661760841932778,3.58545912838363,0.131180732611622,0.0453195684593247,-0.0209676222097959,-0.000806598987684911,57.7375086854044,93.4077441942902,-11.754576353757,688.66756038029,6.48981689977521,30.100807201673,-5.65896479742967,1.29347874392843,3.54103558435027
-0.0381773956025856,-0.0988132884530758,1.02353644373749,9.67876567447144,0.0719348292871473,9.34321021476165,9.26387463461399,-15.9565876726408,-0.234464817723343,-6.05897709383412,-0.0890301227957099,1.06811268999183,-11.4314789508313,72.1116071101024,-6.10857450308088,-0.297900250928728,-0.0144427624571032,0.00114748784440843,0.00108199593089416,-0.95751311879838,5.24127480708419,0.13183560775229,0.0437317343664485,-0.0212750026854513,-0.00108987847650361,53.9474203666568,85.2276615200388,-8.93448798247023,664.072174982128,5.78192538450806,29.3783873408044,-5.37583302513251,-1.20002425916726,5.17686835526567
-0.0586844948906872,-0.105622874522261,1.0359857180317,9.61829233925044,0.197039949160365,10.2075683048115,10.0029178940151,-16.2894784159943,-0.292368392759742,-6.18538114901859,-0.111017056468139,1.01591545569832,-11.8783351530153,74.8334089941985,-5.06391613957716,-0.300420895437536,-0.0217540601501493,0.00110600365529846,0.00100732439049622,-1.38092118924797,7.41564313934792,0.132651176889609,0.0417705365467154,-0.0214550183736784,-0.00164160298312958,48.2821411423089,75.2066674874997,-6.92540866363442,633.493367812563,5.10904577716344,28.0796938704312,-4.9921838244098,-4.47907308523232,7.95613813497547
-0.0787976318228918,-0.106482537230328,1.04726642476609,9.52861122869774,0.364333717495671,11.156615574069,10.7850954003831,-16.5185532084985,-0.385295403717821,-6.2723645911575,-0.146302961095408,0.954030013521058,-12.2828119111394,77.3799025541498,-4.02512903301788,-0.303223869951772,-0.0299322265277279,0.00105686402979413,0.000919866202282835,-1.85435612522229,10.0810863324585,0.133148700030891,0.0396146080858915,-0.0216551970916611,-0.00225874305855918,40.7401612702602,63.3311105948369,-5.71582199316779,596.610067771736,4.48282465919641,26.1702006889275,-4.52165643576194,-8.37655652516148,12.1207615588662
-0.0863956902213503,-0.097246238567558,1.07205104964966,9.34824447967552,0.629956439824082,12.175115514261,11.5377842647808,-16.6664538112728,-0.522121005834156,-6.32852486694816,-0.198257878154171,0.88406771208269,-12.8354293828134,79.6059040159201,-3.211253499618,-0.311895994100142,-0.0430957755285199,0.00101227628538915,0.00084116693679092,-2.41767301231405,13.2794514521081,0.133315525154947,0.0377354429750097,-0.0222745301199816,-0.00325208964117972,31.6438780169048,50.0457396492904,-5.29453819170386,554.245884005894,3.92565968248298,23.7301978301379,-3.99676170587087,-14.5340287118025,18.6559345066132
-0.0667903859685252,-0.0834010481688301,1.10488821100172,9.05029580754973,1.00116011676238,13.2749859006512,12.2667110698043,-16.7585258426948,-0.739003191604043,-6.36348612187394,-0.280611588270624,0.8085616516115,-13.5835757137261,81.8047376903111,-1.68603407911901,-0.317200987340926,-0.0561931344038299,0.000986723680126904,0.000795379151005204,-3.13437692330535,16.9791411900019,0.133595612271206,0.0362425581841599,-0.0226533943374239,-0.00424044139034412,21.6428255235907,36.0230312090383,-5.41545382550177,507.946223226258,3.43923652288923,20.9338396997323,-3.4526542527982,-23.8592269511816,28.1313185860254
-0.0123998609533823,-0.0990588630561358,1.15173754925298,8.56178088903877,1.57706515089839,14.4344961259589,12.8498704240612,-16.7787268778145,-0.995313130294164,-6.37115678502407,-0.377936660479402,0.730814692324876,-14.1993578645915,84.1050635735919,-0.926652769880465,-0.322922255274818,-0.0703930611239836,0.000972516293665302,0.000768060967619572,-3.8638251132459,20.9226621564908,0.133514379216331,0.0351836911232979,-0.0230619874496428,-0.00531199501771908,11.8421509682014,22.2328586067557,-5.48552809985566,459.812021069794,2.9534946245253,18.0077409906709,-2.89021576735569,-37.2158798069126,41.7376711392422
0.0302225233997246,-0.128998695990204,1.2009203706722,7.89066824213765,2.35736345107737,15.6396256988379,13.2745247508483,-16.7852011928365,-1.2952266675607,-6.37361518823791,-0.491818731615727,0.655416730773486,-14.0855814290583,86.6572048754202,-1.33503004711669,-0.323343346497693,-0.0885600937989127,0.000944170488637542,0.000714893617021275,-4.56746250351804,24.9654448587154,0.133161217429238,0.0345267951903542,-0.0230920603242696,-0.00668291404745117,3.16908420108595,9.38364257141842,-4.90188071394036,412.848157851872,2.3946927931852,15.1339239967964,-2.33632097683021,-53.5805643525009,59.6151504423881
0.104859572844561,-0.15641743632438,1.2307986445484,6.95852291995872,3.42848514511122,16.9004090757903,13.4644809911138,-16.695280383945,-1.63731978706855,-6.33947078766116,-0.621717079406604,0.585499737704333,-13.3434180250378,90.1909157361807,-3.31031131448145,-0.317211985348151,-0.105385759600591,0.000918824787061625,0.000683071830063105,-5.30183369036745,28.4930104201766,0.133007023236299,0.0342254248584964,-0.0226541797769545,-0.00795261096759075,-3.81051831415223,-1.77434059027661,-3.61454608926854,369.228180823359,1.7896998626658,12.4857469258689,-1.83733092226282,-72.3530038611659,82.4962137717961
0.158528569896283,-0.159591247678668,1.24893881638594,5.75616526919552,4.84013306107135,18.2015943029374,13.3542770489555,-16.4554134246222,-1.9552604253454,-6.24838938342106,-0.742444335386368,0.52278028581764,-12.1523015565834,94.1036310828028,-7.11760203519126,-0.302649547203449,-0.123019452958362,0.000901755232939069,0.000661746956791613,-6.02956619523693,32.1408933247996,0.132862881934466,0.0339403998452861,-0.0216141809529543,-0.00928328319244945,-8.94841222809609,-10.6732190323544,-1.98174690232438,330.151412215772,1.22067885837583,10.1986961674755,-1.43115530222801,-91.7134197013791,108.036172147522
0.19915095570482,-0.146054334705146,1.23782639939868,4.31781544441409,6.66803015479654,19.5815640290362,12.906256042289,-15.979452286912,-2.24288357094593,-6.06765916151489,-0.851659543963712,0.464985200777882,-10.5563926002203,98.981142058788,-10.6239254560739,-0.283242117229105,-0.133371413593393,0.000892479051001761,0.000637863374599124,-6.52842482108416,35.5590286106937,0.131561876551586,0.0337804702667674,-0.0202281696168287,-0.0100644619398839,-12.7963617164123,-17.5210102408892,-0.575778047493013,294.169350729719,0.77979104638059,8.19773829532966,-1.14140205842139,-108.090559358132,136.338735944363
0.228676896103805,-0.152799864315921,1.22319158322298,2.67250373605608,8.85942250075212,21.0233880907424,12.1563335328765,-15.1900375167828,-2.34029958019462,-5.76790547307761,-0.888649994598877,0.411280036685029,-9.25447485337103,103.487315443303,-12.5639461119914,-0.257684178328689,-0.145586677591693,0.00089851374185317,0.000632876995758474,-6.86690405297537,38.7751985237174,0.12901357925073,0.0337038438683075,-0.0184029102656002,-0.0109862491226405,-15.1917436870205,-22.0564753930665,0.572105434786323,260.852194499891,0.466677860639167,6.48563222640543,-0.952001201773686,-120.975270523381,163.117642102252
0.244453838723494,-0.176141813793776,1.21629098777688,0.842259778591563,11.4366662893554,22.5381365620503,11.0943560175234,-14.1588575339519,-2.40545538382208,-5.37634958257195,-0.913390717979605,0.358387154872985,-7.79820505115619,107.985420670574,-13.9989740393312,-0.215890946258141,-0.150130471554057,0.000909341701437983,0.000627938894444636,-7.01143840360808,41.5947620378848,0.12525948402831,0.0336567279140945,-0.0154181825865781,-0.0113291325049544,-15.8744476454385,-24.1795149843204,1.7296558289596,228.273316789824,0.201378482442644,4.99276237043978,-0.799873026565403,-132.573754294053,190.003413967909
0.164427569326488,-0.195789463857868,1.19238810668391,-1.05914116615577,14.3871754821748,24.1134356251772,9.71909353348194,-12.7140888689257,-2.34223044631575,-4.82774731077845,-0.889383176018313,0.30451117873898,-6.28422098505369,112.546178891413,-15.4205584805012,-0.174059172336492,-0.154386503927837,0.00093513569433429,0.000644656712300424,-6.88506893317299,44.2035985239345,0.119586860378507,0.0336279129527024,-0.0124307023822288,-0.0116503008474555,-15.3221342142315,-24.678854791137,3.01008478087001,195.076528973631,-0.0560900552860588,3.54496898403233,-0.626024424689039,-138.284477133072,214.150485735981
0.0519276431993341,-0.200499055498224,1.14999521525148,-3.00466304670878,17.675303550291,25.7560957546379,8.07348723045184,-10.8893254077197,-2.14238126968074,-4.13485480519157,-0.813497177815245,0.249989689163656,-5.0770641187918,114.847645429137,-15.2042847388626,-0.128500175240529,-0.149319985744406,0.000985206386427121,0.000684609814131521,-6.13713780700968,46.5484698790615,0.109395698499071,0.0335366826235022,-0.00917703682625394,-0.0112679716957205,-14.5566006340003,-24.6991489638845,4.11300692523242,160.9806739914,-0.276903278190274,2.01412540698401,-0.424625633260002,-139.29875555151,235.445270512121
-0.0699565413833396,-0.177386078463143,1.11484919208194,-4.97194075471313,21.2095615229938,27.3793115197489,6.16245377291139,-8.90875777494822,-1.81023191470654,-3.38280090958786,-0.687374639913796,0.195348058652468,-4.82000003678906,112.842322350736,-12.2442243130085,-0.0815490141478951,-0.140824970888009,0.00104527742335943,0.00075406738163385,-4.71150489965943,48.1839744537689,0.0946492818331918,0.0334125826814933,-0.00582394774621207,-0.0106269216281129,-13.3349609483118,-23.5132807504134,4.65479812359525,126.249495447856,-0.383211933258954,0.591641310953796,-0.222893188666921,-137.668504472184,251.482599133881
-0.225326969214356,-0.151090735140353,1.08615966539491,-6.81109735801539,24.8088695062566,28.9192570130427,4.10302805032461,-6.84300560267344,-1.35990040607417,-2.59840105229184,-0.516376406995007,0.143867699868922,-4.84034380639542,106.392151967609,-7.75672909950065,-0.0279307464269658,-0.130931884066387,0.00111000379323425,0.000827042311803854,-2.95858823793814,49.342784982397,0.0789492711514508,0.0332662081798248,-0.00199471703493974,-0.00988037037622524,-11.9057513857764,-21.5030662321556,4.6657911521484,92.9078908053863,-0.377003956076006,-0.677680906633849,-0.0629733624573643,-132.026814810126,259.902838813228
-0.356867618296617,-0.116603350318897,1.11664294421586,-8.54687667376407,28.5265023613363,30.3079549586235,1.77430035944347,-4.67188290576466,-0.926706777370371,-1.77399028488015,-0.351885707143715,0.0985569625501784,-5.99467992439529,95.2842062184694,-1.38108596771193,0.0206507614098624,-0.114911171076736,0.00117341977309563,0.000911231421773166,-1.09321499316839,49.6094932045449,0.0649796700810734,0.0331300513428489,0.00147480575488522,-0.0086714167347372,-9.82877893026925,-18.1072437215455,4.2072512567918,63.3529235303703,-0.265505468790959,-1.60105611108026,0.0209063154659109,-116.064653346634,263.37902953328
-0.484526651922556,-0.0787853601867525,1.13566516427293,-10.0005665200881,32.2722068861075,31.4963695009254,-0.782997822167884,-2.47881060421891,-0.495731503347453,-0.941244893898408,-0.18823735281599,0.0624509649975793,-7.33525445687778,80.0629412644101,5.49373411947942,0.0623802306650615,-0.096659241398907,0.00120793820476568,0.000974481878685476,0.277561068950903,49.26898893891,0.0553456672193089,0.0329775945730149,0.00445497971478974,-0.00729409121480245,-6.96148591340815,-13.4585889463187,3.61356115330761,40.0659240133539,-0.0923419943397099,-2.08539698632308,0.0351419672322851,-88.8816037258508,260.321900338029
-0.581685328048561,-0.0688907304784528,1.13491184949075,-10.9279388247504,35.8523191012666,32.4539350575367,-3.4058503013164,-0.430004326522777,-0.0914490938642622,-0.163279669695186,-0.0347247153553695,0.0369828236112495,-8.80929624097077,61.7155403022185,11.8351965222063,0.0908565187336943,-0.0731137260946749,0.00121659367564399,0.00104638090968654,0.954829064127385,48.2852249454447,0.0504704065000319,0.0328490768045824,0.00648865744162319,-0.00551730159962409,-3.71384265951893,-8.47941311018343,3.22724645257199,24.1661124484184,0.0676240001327648,-2.20113279177744,0.00631828132102919,-53.7825830362385,250.898533392824
-0.662246105011316,-0.0752284944009664,1.11973339486292,-11.3558712294932,39.2613056730433,33.1413814732293,-6.12737242462154,1.27846793788817,0.352663195513871,0.485455168096334,0.13391197838123,0.0206204954054687,-10.5682044194408,41.5352765809399,16.658857307255,0.104503990300082,-0.0472981667872534,0.00120217938549606,0.00120128280285527,1.13374864622876,45.8223931728701,0.048489737407406,0.0327646146382711,0.00746331252606617,-0.0035692101225519,-0.0274752958374912,-3.28436552350656,3.24550958750297,14.8880116608216,0.159319761051183,-2.02588213040446,-0.0345990193222872,-16.1240639096621,235.959991710326
-0.735695773703902,-0.06918905327778,1.06251287777733,-11.2535108351353,42.4386398593425,33.5293469008699,-8.91626679320919,2.51726894496635,0.747295634350665,0.955848154347079,0.283760364292446,0.0114097004990797,-11.5442345950646,18.4993148714054,19.691093585142,0.103651664207938,-0.0239744354729052,0.00117341977309563,0.00138233732197662,1.18019921358275,41.3364628242707,0.0473594203357733,0.0327017083315956,0.00740244235276919,-0.00180915675140756,3.4438215350322,1.27950205907156,3.59079706216351,10.5665074581692,0.177466135997918,-1.74720758271277,-0.0633812603901996,22.0624873834601,214.709331203783
-0.796754574970895,-0.0741532420398322,1.00921100353469,-10.6950655323394,45.2335410316644,33.5814081481997,-11.6592959176618,3.29257978298638,1.1743236682159,1.25024634928315,0.445909887028486,0.00686871199690951,-12.5690350033394,-5.59987775857345,21.2760216839369,0.0950074614723767,0.00267335826517526,0.00112879754474293,0.00163871857650264,1.06857213383951,34.9390349753882,0.0471313759720371,0.032661294263383,0.00678510337490892,0.000201736727433647,6.34919130736387,4.88512907089545,4.0939833860799,9.2057843542927,0.13710107374254,-1.46501377911578,-0.081644647167516,53.0327520270761,189.87404680569
-0.843353791725079,-0.09126828978077,0.912346906790055,-9.70309877678059,47.6850910436019,33.2720756321655,-14.4204315549435,3.50657066903252,1.63533578674448,1.33150218564633,0.620963722062021,0.00535517316265083,-12.6735156438992,-32.6275954696575,21.5423097773201,0.0843306677318594,0.0407638837319223,0.00106500224145661,0.00199510327942343,0.83483051699327,26.3102505931923,0.0475290206225341,0.0326269922132707,0.00602260379730414,0.00307612062651264,8.60590003763656,7.43661085106228,4.73396969859048,9.52389915663509,0.0524414450076196,-1.23113414797463,-0.0936200985023266,76.7387974357256,159.225474762374
-0.877596502888278,-0.101956861888112,0.796122383094999,-8.48638395287583,49.6122888325905,32.5555607036064,-17.0643504758407,3.36498493241695,2.31769367226735,1.27773976773049,0.880066161944515,0.00659466378932266,-12.0632641299779,-61.307190937001,21.3588919336383,0.0691648231240301,0.078372065911543,0.000996068829959656,0.00237815097072313,0.551979578833583,17.0656552102787,0.0481823088722724,0.0326218145453292,0.00493951177655958,0.00591410597867332,9.68828009281979,8.25807661255947,5.44322049077554,10.9210534374578,-0.0657289074865895,-1.15698591234506,-0.100443213296073,92.5193890351472,122.011215368923
-0.890476511352615,-0.114290666731279,0.663621121132513,-7.13161459229023,50.940118348436,31.4087782891252,-19.5385764180185,2.96637934686606,3.21775738148092,1.12638271308476,1.22183506072147,0.00951560880318827,-10.8710065422495,-92.9138672754221,19.227800781441,0.0562269860824368,0.121674650538868,0.000934308079588954,0.00271294872236974,0.30212486542179,9.49864263434279,0.0489482161659691,0.0326218145453292,0.00401553632858427,0.00918180182996708,9.40990958890838,7.22667820657843,6.08094355476043,12.4942307805351,-0.191297262958193,-1.27649893270884,-0.102484142026856,98.8950038980257,78.604700123874
-0.876376724421671,-0.121443074402785,0.527332230415065,-5.71090328918169,51.6190178241933,29.7670004587739,-21.8589392703549,2.3532477196692,4.28606426290621,0.893566614749361,1.62748864133254,0.0127818486598691,-8.59089596174153,-126.936235241215,16.6447252254621,0.0441253714614596,0.186668802608679,0.000888409945170526,0.00289643091141074,0.164584320836157,5.54223237815091,0.0494484171230766,0.0326218145453292,0.00315128098553931,0.0140863848451541,8.55817082030767,5.47852080910064,6.62456043408415,13.8073242088463,-0.313763507305563,-1.4600210602902,-0.0952092706136136,99.7635095830806,29.6508977810626
-0.900267694289747,-0.142540762937058,0.35462363237219,-4.32383541243634,51.4895621626785,27.6282697293097,-23.8684418524358,1.76461523396711,5.64754791285631,0.670053240792174,2.14446623189981,0.0164221647536513,-5.52150829453842,-163.47006033452,13.3182108967025,0.0324567372778633,0.234508486612842,0.000862788372012831,0.00303624262905618,0.0562926274889612,3.26388040478318,0.0496134468381376,0.0326218145453292,0.00231794760358472,0.0176964588925348,7.04537428636197,2.87185326872324,7.09181059904453,14.9068930515545,-0.437155517299383,-1.74593690604975,-0.0815476906287419,96.4389923918194,-29.8383653199798
-0.850351913638905,-0.152929689172516,0.167722240062357,-2.97322525732041,50.4418200567632,24.9167007695231,-25.5327213762087,1.22272256965273,7.08813954259737,0.464287740814559,2.69148241513654,0.0211108109786026,-1.13701885725509,-204.358211335156,8.7149979059387,0.0195520237781015,0.239904876995933,0.000839166867823031,0.00311629366529881,-0.0196010259575868,1.70579036196263,0.0496555642376457,0.0326218145453292,0.00139633772408146,0.01810368083133,4.20594002015865,-1.46484213569833,7.41293955473446,16.0431257148282,-0.565935710424742,-2.21847821875439,-0.0710726044395932,88.1325051401083,-91.3290666668573
-0.742403693367172,-0.142845483665998,0.143193965341179,-1.84531639260714,48.6351726580913,21.6308624986134,-27.0116463995447,0.750225497530876,8.07748236749967,0.284872881220323,3.06715205309492,0.0233647346051699,3.52175663633302,-241.095753391214,3.39874604305623,0.00867348767545519,0.22341264973908,0.000816235042587678,0.00316459188247871,-0.054021262306976,0.740971801385204,0.049684104801679,0.0326218145453292,0.000619430406695717,0.0168591458214774,2.33049408809476,-4.30288025796691,7.59869660438084,16.1376610058351,-0.654110780913539,-2.52181107974997,-0.0704860068192547,77.3946509452344,-144.487289233518
-0.663138952186155,-0.134707000260915,0.2081405230225,-0.87509975033091,46.2046468127428,17.9242598404525,-28.2879022675092,0.31335620781495,8.04858453294667,0.118986472816922,3.05617907308127,0.0199066505744776,7.20451658395756,-269.772426241683,-0.37774688253425,-0.000121273003893817,0.198635012555491,0.000811131418324772,0.0031971447291286,-0.0808462721562663,0.49933091243121,0.049684104801679,0.0326191866444997,-8.66089731536004e-06,0.0149893779328747,4.04389376300544,-1.85289510697897,7.57182451141724,13.9717130550581,-0.64733822615449,-2.27241467424242,-0.0776458563791987,64.8765952885984,-185.759955159094
-0.605382743626012,-0.121891158713272,0.34052804812061,-0.0930038705417933,43.2306155004039,13.8617859220436,-29.3760764390854,0.00158347658672186,6.97543613387715,0.00060127193635646,2.64868708910304,0.0112761093413782,10.3524467907851,-290.564824360291,-3.80195811509442,-0.00732866727571155,0.169185440087525,0.000810372771474881,0.00321155901927654,-0.0972000100389648,0.524093856750901,0.049684104801679,0.0326163397519344,-0.000523387998114998,0.0127670568727312,9.39574675492299,6.05817119770722,7.22942129172786,9.34846810809805,-0.545018900792929,-1.50181545201015,-0.0959707422545912,52.7645392128389,-216.820711891849
-0.532904208590357,-0.118093642612472,0.506911964776597,0.53673752679954,39.9201783171175,9.59962008974163,-30.3278713450317,-0.2231584801454,5.3284072061807,-0.0847369216548814,2.02328329033812,6.40115942063801e-05,12.3495790210281,-303.084624027473,-6.49023908949489,-0.0128731604521169,0.13240794163592,0.000811200386220217,0.00325175350874169,-0.0973793890495292,0.588900549741444,0.0495918885100028,0.0326007730695747,-0.000919356470278898,0.0099917565033524,17.3088814053137,17.7191929117004,6.75926192120172,2.96675508991112,-0.389634959124386,-0.404202873738827,-0.116714219716537,40.7965187110006,-239.344619243638
-0.451572537777351,-0.107475919141855,0.682373918739873,0.989568975902602,36.3855857390441,5.24443981152616,-31.1489444292609,-0.390192657456097,3.60828164854559,-0.14816252836829,1.37012350667713,-0.0100857013927012,13.9523501884109,-305.356279239841,-8.45661213546985,-0.0165154235658966,0.0996898929698792,0.000813821166247114,0.0032948722369737,-0.0683976379527837,0.642422565334767,0.0492998702530283,0.0325487424265375,-0.00117947426905619,0.00752278997840774,26.5968698765295,31.2641443940382,6.34950970202233,-3.68899955702506,-0.221100320878886,0.877790228120598,-0.137597013073293,29.5379124793135,-251.714691089417
-0.383446939519062,-0.106953565441204,0.835107694535878,1.31335993584976,32.7081435235413,0.935725876937927,-31.7802351782354,-0.52172991181812,1.93283058785518,-0.198109373365221,0.733927359554206,-0.016834577543967,14.4086591768766,-299.275144421289,-10.0293561004961,-0.0184322323819134,0.0685762121117562,0.000813821166247114,0.00336494361874548,-0.0584836811686713,0.658814131693169,0.0491916085269098,0.0325315004526764,-0.00131636610644511,0.00517489211656948,35.5563012779198,44.2359474656058,6.04825602945209,-9.61020233899026,-0.0663435857007986,2.10081410434032,-0.158743297676002,18.9258634032452,-256.629489873106
-0.303905773370641,-0.0998554257348836,0.941715156419728,1.48706954319562,29.1207209874299,-3.22452550269247,-32.3526779153139,-0.592413351122476,0.56422489788288,-0.224949030342308,0.214245414005705,-0.0191534048710835,14.8265311675514,-287.052119053834,-10.5096081094696,-0.0191948217342226,0.0425006673443582,0.000817131625228458,0.0035415566054002,0.00568729476917249,0.689618985086359,0.0487045104006997,0.0324395751324214,-0.00137082759302558,0.00320718163947053,42.6753482746926,54.4899754971556,5.86208081191003,-14.0157461548886,0.0500981682424018,3.04743631833356,-0.169530822205574,10.8229090941253,-255.08453235502
-0.22685094126651,-0.0913193555839762,0.988386905632988,1.5717694051799,25.5070091214972,-7.17491898120586,-32.6887686876413,-0.622045269252718,-0.521258508720967,-0.236200753886268,-0.1979303739058,-0.0169883004215813,14.9296409862168,-270.218061964337,-9.69291251234689,-0.0189908382223874,0.0210769307740665,0.00081464878099245,0.00380337253008726,0.0212765957446809,0.524255319148939,0.0485533983930478,0.0324149108589952,-0.0013562597981058,0.00159050550541416,47.4518472921911,61.2692725390007,5.837773461273,-16.3372415773173,0.117952688449871,3.66545275104009,-0.174170316225692,4.63918110120486,-247.929271598313
-0.138109191249053,-0.0872206227308204,1.0000337974848,1.60834838018452,22.0879309449145,-10.8678342812226,-32.9625380096164,-0.630268525101394,-1.365604495445,-0.239323258512322,-0.518542342942472,-0.0111234547798029,15.2406908894397,-250.854016600399,-8.87454465833991,-0.0182680815274406,0.00196764267157957,0.000813821166247114,0.00411172799062038,0.0212765957446809,0.468085106382979,0.0485533983930478,0.0324149108589952,-0.00130464302175874,0.000148482079074141,49.6358558685961,64.322063793757,5.87363675560777,-16.3851944082708,0.134433338548109,3.93519400432274,-0.173343761111375,0.623345117532801,-235.827270854566
-0.0610788300684103,-0.0840454614013265,0.980155356965883,1.60802790892216,18.9131213356106,-14.2584185804103,-33.1784728636836,-0.626238894218818,-1.95330274797818,-0.237793141816007,-0.741700973298656,-0.00326972904297546,15.2450590176022,-229.59408549538,-7.89823785208124,-0.0176753647486974,-0.0147441977568717,0.000810924514638438,0.00448174074968104,0.0212765957446809,0.271489361702147,0.0485533983930478,0.0324149108589952,-0.00126231324519709,-0.00111262536071304,49.8099121013953,64.5676866114569,5.87416662294817,-14.6998931782521,0.118814120935892,3.94124125297147,-0.169781701948922,-1.53069774858495,-218.118123067167
0.0111672289455933,-0.0841388419467176,0.943231263031466,1.59045196027227,15.9586642510399,-17.3382022686693,-33.3039545502633,-0.624801957086343,-2.42906568110032,-0.237247513305102,-0.922355933683759,0.00507143381663861,15.0073127155105,-207.060341930467,-6.45312655247986,-0.0173479526144953,-0.0220047858039202,0.000810372771474881,0.00499672402496639,0.0212765957446809,0.23404255319149,0.0485533983930478,0.0324149108589952,-0.00123893060616713,-0.00166052322047086,48.6876250450855,62.9852744975905,5.86942516090539,-11.9843879394315,0.0856446851000823,3.7771226209754,-0.164313308822332,-2.37098514324708,-195.031786031246
0.0437962576744046,-0.0893217797043369,0.908868917809687,1.57115636646166,13.4333462014187,-20.0854663632483,-33.5263294804928,-0.617639942569091,-2.7420620139905,-0.234527979354861,-1.04120575611085,0.0126732753868561,15.1859859954238,-185.014120708693,-5.39341001848759,-0.0170343586098184,-0.0267741961143522,0.000810372771474881,0.00555598468912723,0.0212765957446809,0.23404255319149,0.0485533983930478,0.0324149108589952,-0.00121653481002113,-0.00202043204389666,47.0679078148642,60.7406216871974,5.82345189711015,-9.04328831328808,0.0594514094909468,3.55407496744865,-0.158868639911029,-2.51446046425727,-171.728275747415
0.0870162823012761,-0.0904086227445373,0.876802146544905,1.54451827702769,11.1932485066581,-22.5268671409456,-33.7277065126573,-0.606467506156401,-2.88303831536299,-0.230285622674625,-1.09473676150582,0.0194723074575015,15.1831226848627,-162.30443169431,-4.19162066184735,-0.0167712582221435,-0.030884393583029,0.000810372771474881,0.00631242456636435,0.015744680851064,0.173191489361704,0.0485713300458634,0.0324149108589952,-0.00119774509286958,-0.0023305954055524,45.4821634724267,58.5783293907318,5.74316303804416,-6.10461493730583,0.0412058628929956,3.34466729719462,-0.154713404144174,-2.3193467056308,-148.188202708513
0.107228359197418,-0.0991335269234294,0.857632322828154,1.52060627674698,9.29875436577853,-24.6296634378422,-33.9356221063875,-0.585650608489133,-2.92686253150477,-0.222381106451088,-1.11137753252816,0.0251695423568449,14.9597630865547,-139.54669754157,-3.31251064767927,-0.0165581523534795,-0.0369825122145045,0.000810372771474881,0.00725104313941859,0.00659574468085112,0.0725531914893623,0.0486009862409046,0.0324149108589952,-0.00118252581086502,-0.00279077110001188,44.2756315626668,57.0402727840117,5.57492585454602,-3.5394026642872,0.039337901748778,3.2028077479185,-0.151228338011887,-1.66881672456933,-125.099482353159
0.136690669555181,-0.10821571285869,0.835299237963631,1.50531694611378,7.69959632745846,-26.3998628794822,-34.1068612997722,-0.569532725733866,-2.88228737921265,-0.216260882978578,-1.09445161877811,0.0299574853962134,15.1165917592692,-116.401971288822,-2.17362287437935,-0.016427573659982,-0.0363207511852655,0.000810372771474881,0.00817821304182902,0,0,0.0486223662884925,0.0324149108589952,-0.00117320033347398,-0.00274083334714094,43.361593665489,55.9076176744585,5.41493617338738,-1.28101339956181,0.0482551172345441,3.1028414706286,-0.151376396981772,-1.33173261295453,-102.250127679168
0.112899685861713,-0.118255238954979,0.833577141318377,1.48938369140798,6.4260295039407,-27.8423719170439,-34.2758138429048,-0.562035618944354,-2.74063398903799,-0.213414109016651,-1.04066351170032,0.0337335134554672,14.9934685755562,-93.9957277578703,-2.19098468798264,-0.0162988267727845,-0.0360891514132891,0.000810372771474881,0.00881271767991997,0,0,0.0486223662884925,0.0324149108589952,-0.00116400567733546,-0.00272335638541773,42.5449229503572,54.8914968943747,5.27611015213878,0.61964216784664,0.0643273107035647,3.02125720967329,-0.152313231613027,-0.955640993451274,-81.1637682566842
0.113810753116638,-0.126165706246674,0.815744042376615,1.48045026192687,5.45823056803097,-28.9649636243472,-34.4309104428079,-0.55682773343482,-2.55492861551185,-0.211436589784035,-0.970148146668603,0.036307912527107,15.0236249036404,-73.5970055096353,-2.72620887144422,-0.0162816979155042,-0.0354564129408583,0.000810372771474881,0.00922983551156933,0,0,0.0486223662884925,0.0324149108589952,-0.00116278239375815,-0.00267560873018859,41.5229612301125,53.6910953193113,5.03123960220601,2.13486184375979,0.0898642594685541,2.91069202367615,-0.154338990961691,-0.658981224947974,-63.2404825630333
0.140269119583718,-0.133772655622474,0.806154541391543,1.47460819236336,4.70611432143711,-29.8096224016965,-34.523007638715,-0.556932739534548,-2.35690108733107,-0.211476462316058,-0.894953858152068,0.0383854932756562,15.1754471807582,-52.5002540992072,-3.41916849183109,-0.0162556526263565,-0.0313624506923397,0.000810372771474881,0.00946267112659053,0,0,0.0486223662884925,0.0324149108589952,-0.00116092232954258,-0.00236667050929552,40.7569853478881,52.8631716550189,4.77590978540599,3.42608976121683,0.125387830320101,2.83958803589806,-0.155948477088265,-0.369351707305254,-46.9347652677484
0.0959458561180868,-0.138714331803227,0.795524250316543,1.47100033345467,4.19596468263075,-30.3310752921668,-34.5337947965203,-0.558949660948842,-2.11375296949901,-0.212242320336581,-0.802626544406956,0.0395524004137984,14.8683894357814,-33.3986438142324,-4.05173990237174,-0.0162311439774373,-0.0260511352028191,0.000810372771474881,0.00961384875340525,0,0,0.0486223662884925,0.0324149108589952,-0.00115917200684246,-0.00196586848467303,39.7412507449844,51.7497212721074,4.45289451711937,4.48487407215685,0.162429236847875,2.73455466793152,-0.157307542865456,-0.270611953668906,-33.3311031473046
0.0945154273555515,-0.143631524044431,0.789365366995234,1.4680247725686,3.81747418095584,-30.6226422228761,-34.4471630742,-0.560226284009769,-1.89291832160179,-0.212727074974747,-0.718772019831606,0.0399788704862668,14.654293418632,-15.6160938052595,-4.292336274267,-0.0162068319141554,-0.0095552098411669,0.000810372771474881,0.00965247077485426,0,0,0.0486223662884925,0.0324149108589952,-0.00115743572360672,-0.000721054408759693,38.5028589817954,50.4428655725805,4.00839978961339,5.32879531102385,0.201638135948887,2.60688566838479,-0.160298373741544,-0.188028813227107,-22.4637145732539
0.0254038856189228,-0.146264310169715,0.78660868199939,1.46659333244428,3.54908205472117,-30.657420561403,-34.2141593600144,-0.559847308407194,-1.46188367489312,-0.212583171745421,-0.555101120724864,0.0396581420659292,14.3270713289842,-0.702534472916424,-4.46361924739277,-0.016200647078524,-0.00789246552075923,0.000810372771474881,0.00967343701506944,0,0,0.0486223662884925,0.0324149108589952,-0.00115699402409737,-0.000595580542376904,37.0728110781949,48.8340279994378,3.59484422264089,5.92932856506638,0.238225222218567,2.43849806904184,-0.15750863393634,-0.117204791677345,-17.4534450651647
0.0102429008211172,-0.141508855978465,0.783245958531137,1.464720802431,3.35151038745772,-30.5092201502086,-33.8681237623974,-0.559193054146265,-1.07229454979786,-0.212334740711052,-0.407167763456605,0.0386092049540911,13.7224918223118,11.4897620743892,-4.30845862580403,-0.0161801308852457,-0.00284942493728994,0.000810372771474881,0.00968336839201347,0,0,0.0486223662884925,0.0324149108589952,-0.00115552882873171,-0.000215023055235364,35.38782720663,46.8734021402613,3.1725430382704,6.27205992036894,0.289706776157068,2.22609206773305,-0.148315499203328,-0.173542446041915,-13.8825952434198
-0.0096076909529168,-0.143575542337784,0.79698196063199,1.46086592537289,3.1718953503602,-30.1950583653895,-33.3741620309541,-0.558548351556124,-0.715628143135254,-0.21208993660217,-0.271735700383736,0.0376721860150493,12.869542646292,25.3518536731424,-1.95610288156778,-0.016130315536548,0.00107739727711127,0.000810372771474881,0.00968998930997616,0,0,0.0486223662884925,0.0324149108589952,-0.00115197118930705,8.13024590312818e-05,33.9087105663218,45.1862189918409,2.76793937363533,6.65018710383511,0.344111970266406,2.0380330741463,-0.133604393339397,-0.278447480349915,-11.3856501688598
-0.0534464302208673,-0.139607668768927,0.801181450764923,1.45922665677989,3.02304391375845,-29.5938972040588,-32.6240443756839,-0.557804319613596,-0.445061362615306,-0.211807415514996,-0.168997072354032,0.035287431779876,11.7795855369606,36.9267722642898,2.08659173665819,-0.0161286778119771,0.00273747028258238,0.000810372771474881,0.00968998930997616,0,0,0.0486223662884925,0.0324149108589952,-0.00115185422869848,0.000206574742880123,32.3669454775994,43.420233782332,2.35353948467964,6.1805466134014,0.391555332770068,1.87033853121258,-0.118693057852122,-0.0620833943538973,-10.0455191634897
-0.0414266916702293,-0.136499134253305,0.802422608300511,1.45358276976289,2.90281302892525,-29.0224890672543,-31.9324528490999,-0.55497171356812,-0.275520894283016,-0.210731828710505,-0.104619785983177,0.0351773401500978,10.4906666194028,48.6317701581014,8.14451726459926,-0.0160236531270736,0.00333215045022999,0.000810372771474881,0.00968998930997616,0,0,0.0486223662884925,0.0324149108589952,-0.0011443537299698,0.000251450445644584,31.1566731012506,42.1392878592541,1.92290179895951,7.0632181926155,0.439289792516692,1.68064403507386,-0.107788937626096,-0.639286247626012,-8.76136357559053
-0.0285707827622133,-0.133430835994087,0.811685305901243,1.45040736391347,2.76893084996788,-27.8817936423791,-30.6580657399197,-0.554780434104311,-0.137775347535514,-0.210659196772304,-0.0523155509146872,0.0301184327566312,8.92322636999331,58.636089824559,15.2135064299543,-0.0160371595893519,0.00454575195240554,0.000810372771474881,0.00968998930997616,0,0,0.0486223662884925,0.0324149108589952,-0.00114531831465997,0.000343031135987037,29.7425378296159,40.558631795505,1.50366858253261,4.88840120266906,0.49289702661337,1.60319633787268,-0.0896907959587313,0.161798020279003,-7.50560735636393
-0.0195897899893571,-0.145324986490898,0.854723128599643,1.44609155146267,2.70943797726327,-27.2613912575403,-29.9780276655527,-0.550479856057092,-0.0376826325156077,-0.209026197009891,-0.0143087113568091,0.0336155630177872,7.2260034703754,69.1111348439519,21.7646960535456,-0.0159040178389362,0.00639480796140262,0.000810372771474881,0.00968998930997616,0,0,0.0486223662884925,0.0324149108589952,-0.00113580979263353,0.000482564438708114,29.6599951280488,40.6883447162209,1.2572226537857,7.6057469515674,0.520779837041116,1.5100845598693,-0.0916941154240456,-1.0340915620487,-6.3620671036274
0.329790160976792,-0.150225169939244,1.10965059614026,1.44292103057405,2.56312209359325,-25.4589545684107,-28.0291403597119,-0.550330098543719,0.0347181458034778,-0.208969331634801,0.0131830473080621,0.032192791258983,5.1687126308763,64.7648534975929,32.4331606278438,-0.0160474876112307,0.00627038392580145,0.000810372771474881,0.00968998930997616,0,0,0.0486223662884925,0.0324149108589952,-0.00114605590616089,0.000473175163023202,30.0442588272586,41.2462742801767,1.24272402478003,7.27726944025652,0.533634491585166,1.86576580113265,-0.0997777739825055,0.818183133265115,-6.74315075494374
1.2611660770516,-0.22527649055094,1.59742785072894,1.40627960256598,2.51784228193183,-25.6649467948748,-28.1900091395853,-0.511627666945904,-0.0062182264749313,-0.194273385901434,-0.0023611622076618,0.0798878710472436,4.49493958901918,45.1893014434615,47.4220719588001,-0.0152527691414238,-0.00140608641000548,0.00111810752094899,0.00922059381357979,0,0,0.0486223662884925,0.033995655022587,-0.00108929986944521,-0.000106105969610786,40.2026573318229,54.2104680492441,2.64467519285807,34.3290379016005,0.324569042723654,2.81599067841665,-0.151105858408937,-6.15130289762259,-11.915686978844
1.59085663724414,-0.254449319264788,1.55722334407644,1.2332391516966,2.13575385545125,-23.4790521941492,-25.6219398490303,-0.404259812509174,-0.113176319825447,-0.153504057020318,-0.0429748981082331,0.135114829641946,7.74489380635157,30.0415993822557,44.7786017199248,-0.0127147483631711,-0.0189490645268465,0.00251339701369012,0.00711259008931344,0,0,0.0486223662884925,0.0410717610952101,-0.000908043228322155,-0.00142993264889785,50.2347699988575,66.7241811008711,4.31851193420631,67.3433108790737,0.0594793165370103,3.57587908268395,-0.0782010126924958,-15.3791679892336,-18.0478016542321
0.799467136212086,-0.421410849782972,1.12678218568134,0.77365038220777,2.17140706129916,-25.9399865587882,-28.1193780594696,-0.175121571292169,-0.421500297836577,-0.0664965223682994,-0.160050551034475,0.243376073572142,9.6405479992698,48.9034266094876,14.0370992271389,-0.0048357914075677,-0.0143688449260236,0.00400358633056312,0.00486223662884925,0,0,0.0486223662884925,0.0486223662884925,-0.000345355449891512,-0.00108430051824256,54.3461658147321,72.1353536125671,4.72173114560405,137.377760699165,-0.350391696068046,1.20668626085538,-0.183136898897436,-48.8201755882925,-11.7775373325233
