accel_x,accel_y,accel_z,angle_ankle,angle_knee,angle_shank,angle_thigh,current_ankle,current_knee,current_qaxis_ankle,current_qaxis_knee,ground_reaction_force_vertical,gyro_x,gyro_y,gyro_z,impedance_current_desired_ankle,impedance_current_desired_knee,impedance_damping_ankle,impedance_damping_knee,impedance_equilibrium_angle_ankle,impedance_equilibrium_angle_knee,impedance_stiffness_ankle,impedance_stiffness_knee,impedance_torque_desired_ankle,impedance_torque_desired_knee,loadcell_force_sagittal,loadcell_force_x,loadcell_force_y,loadcell_force_z,loadcell_moment_x,loadcell_moment_y,loadcell_moment_z,velocity_ankle,velocity_knee
0.392070946268662,-0.183974443354603,0.497807820238792,-1.45580204989453,-0.0630654187113319,-14.614113252175,-14.5549199865222,0.555676743598158,-0.0184321547522868,0.210999540134157,-0.00699899036844813,0.167331067267794,-1.52862169217556,28.8211064964914,-10.7265879827062,0.011082207872053,0.000724121896849879,0.00234400892275716,0.00146112476724846,0,4.43143812709032,0.0366348414417671,0.0450406747641052,0.000566635423154029,3.91217399829779e-05,17.7116146030527,31.0121346374571,-5.96412905429462,141.577679818299,-1.41869881746095,2.2395405069368,-0.69334929456742,-54.4406829929879,-0.374958336604134
0.744165133054584,-0.315292243174267,0.828386041898032,-3.9872452243665,-0.143729187477879,-28.9769109048761,-28.841209449836,1.44905188193034,-0.00878385524441169,0.550228679246186,-0.00333537337764879,0.362807646769606,-3.73505979757181,57.1887004750638,-35.4290576962497,0.0493493577917662,-0.0165228541635119,0.00234730761081071,0.00141478790211978,0,4.43143812709032,0.0366348414417671,0.0450406747641052,0.00252324216957111,-0.000892671257662001,35.3111078083554,64.247852806412,-14.3104052414172,331.064539975458,-2.77178726463407,3.41894257278543,-1.38041672237066,-131.459606728706,-1.27655659341602
0.521614608752091,-0.071882419608652,0.771908054831517,-5.49076505782896,-0.0898519476173995,-24.8546770522174,-24.7717980365792,2.04082416741306,-0.222688310374125,0.774934286489106,-0.0845583905094502,0.386224576940919,-4.96138353437747,50.2907878536549,-46.6153583699642,0.0661289669579032,-0.0227069776600817,0.00235060629886425,0.00137706643402508,0,4.43143812709032,0.0366348414417671,0.0450406747641052,0.00338118681832565,-0.00122677753522094,28.0923688643836,59.937964946204,-20.209355899005,346.842121203276,-1.27238310854187,1.92168648542303,-1.29312191219713,-135.28510933447,5.12515837432882
0.30646010870384,0.12504564504577,1.15178583054356,-7.51952839265194,0.0239121936383135,-26.0077781431877,-26.039005700016,3.17992197036578,-0.597132679234636,1.20746833683379,-0.226741036347383,0.434938404424639,-6.04138721636846,57.1118120519437,-52.9648782179488,0.0752851511272707,-0.0192231316752047,0.00235177054170668,0.00136996455268627,0,4.43143812709032,0.0366348414417671,0.0450406747641052,0.0038493442785705,-0.00103855768252208,24.8703954010481,66.6100486432343,-31.4379981654907,397.005611180699,0.612022698823566,1.68657109427804,-1.57970628704814,-134.14077859008,9.87584043103616
0.0403158743970143,0.149139102604322,1.27817638726866,-8.87449732547977,0.133785121868021,-24.0680852027431,-24.2093020768715,4.23521953256749,-0.886750472308641,1.60818206634391,-0.33671364516593,0.457887374567954,-5.43618857598252,59.0309996384226,-43.6961189505355,0.0768877947612305,-0.0197216287265797,0.00234944205602183,0.00136239697421048,0,4.47625418060203,0.0366348414417671,0.0454088859670708,0.00393128775627624,-0.00106548971166111,16.3917836579002,64.3718592368089,-41.1903764763207,416.647595042499,2.81711705757907,0.709442519447422,-1.89065937205085,-109.573432557862,7.71681381165356
-0.0303849819599253,0.039299041559445,1.25406529652042,-10.2477946843587,0.206133452095832,-23.915879764145,-24.1288744114334,5.28864900804878,-1.08162260905182,2.00818645279895,-0.410709779989786,0.5128156550861,-3.91866429319335,64.1257070888898,-25.5003894229526,0.0755391640776107,-0.0189927150151981,0.00233081417054296,0.00134819321153284,0,4.5702341137124,0.0366348414417671,0.0461257490932491,0.00386233200964938,-0.00102610908691996,10.3269159109127,65.7171961613323,-51.1127316226331,469.687726801263,4.53666056640468,-0.0606085669977209,-2.51022935442089,-83.5948239919669,3.51579346428623
0.0459418879847801,-0.0433485810623494,1.15879440327486,-11.0013445582833,0.215989855493713,-22.5875042276372,-22.8109712736583,5.70259089321238,-1.09981809542522,2.16536695102572,-0.417618903507256,0.567886811368266,-1.79218838347578,65.3233632793528,-9.71459251519556,0.0716397981933535,-0.0203052830175488,0.00230900402129479,0.00134050920877281,0,4.6083612040134,0.0366348414417671,0.046373499970118,0.00366295668089108,-0.00109702248467982,6.59900452945802,66.4237830923372,-57.0913813886162,517.247507657051,5.43917303364686,-0.462308625253315,-3.03677546458298,-54.6497919453655,-0.368719986031189
0.176865128860146,-0.0766538161153144,1.13308414452864,-11.5611713829397,0.204775420213997,-21.8734182583645,-22.0854570412697,5.75587518108114,-1.14427659652914,2.18559986587453,-0.434500522894883,0.647292678711513,0.185481261413685,67.7158634801052,-3.95815233140366,0.0659769959917413,-0.0206247066695049,0.00225083068726808,0.00133887926879341,0,4.61538461538464,0.0366348414417671,0.0464144813181715,0.00337341651355313,-0.00111427981263883,5.76221625539814,71.8993483914013,-63.7503440136905,587.376910185,6.08440262980742,0.0378070996680223,-3.50795833379883,-26.993342290952,-0.468826980071202
0.170259176403773,-0.0742478053646158,1.09119485600166,-11.7146009740723,0.20645786546108,-20.7327707850513,-20.9462013103327,5.49341933562133,-1.16494269632656,2.08594109243198,-0.442347778702976,0.723024367163605,1.27538536272217,68.3719406427418,-5.80540705870479,0.0604794146688729,-0.0208022112819099,0.00212699405692838,0.00133887926879341,0,4.61538461538464,0.0366348414417671,0.0464144813181715,0.00309232412157022,-0.00112386975781588,5.49114692335486,77.969159531111,-70.2035050791192,651.51022544426,6.74135565732123,1.10457310954934,-3.74617438625122,-5.96608508052838,0.178066678872444
0.0632522077950309,-0.0073633134449168,1.06678232641374,-11.6598712038862,0.208632078330114,-19.6269281201403,-19.8429001721364,5.01712765990675,-1.1855600949744,1.90508535984408,-0.450176541888725,0.808455359563409,1.81328316386879,68.4467106298396,-5.87716635149188,0.0552340433269714,-0.0207062148483795,0.00191560636483801,0.00133887926879341,0,4.61538461538464,0.0366348414417671,0.0464144813181715,0.00282412727449486,-0.00111868341069917,4.67594981603522,85.6005674689694,-78.9877758221564,723.981969916166,7.79016065458379,2.90909254374119,-3.98532819873599,10.7639191630439,0.0434661087379476
0.0155682962497232,0.0401605320213309,1.02420111387709,-11.4083933696399,0.207074436704932,-18.3324566006702,-18.5469414745116,4.46826437897483,-1.19135764805856,1.69667300282647,-0.452377967535478,0.884746804805009,1.6902894685254,67.4190244755824,-1.65089639592972,0.0511884384736017,-0.0207725413098448,0.00164003008403505,0.00133887926879341,0,4.61538461538464,0.0366348414417671,0.0464144813181715,0.00261727471907726,-0.00112226679436804,2.70811472259172,92.3008652650129,-88.4710126958614,787.08242631298,9.13533803322189,5.07231704379875,-4.2856660034401,25.1329158370884,-0.0890739040287456
0.0987890336134231,0.044882841001111,0.987048918603693,-10.9440382632439,0.205007340150674,-17.0699187793922,-17.2826971604187,3.86801853657658,-1.20051297911137,1.46874984755212,-0.455854396348044,0.953074370853927,0.727081164882484,66.2479609686462,1.1339746918412,0.0464975607058136,-0.0207747352882159,0.00140904430409713,0.00133887926879341,0,4.61538461538464,0.0366348414417671,0.0464144813181715,0.00237742923525293,-0.00112238532724453,0.96612651792995,99.6092761650652,-98.2429669404404,842.588395452937,10.7155850749362,7.80768153647783,-4.63732386633016,39.8080074517669,-0.139189551046849
0.183347336370865,0.0503336860224227,0.964039824051362,-10.299845972996,0.201510951564299,-15.9778427908101,-16.1870035426778,3.28260453732414,-1.20328421749358,1.24645858549475,-0.456906680847956,1.00824363230146,-0.537537143424561,65.5693903161169,0.0189704725614583,0.0422588637900358,-0.0207985526288036,0.00130441768065751,0.00133887926879341,0,4.61538461538464,0.0366428007739069,0.0464144813181715,0.00216070384549099,-0.00112367209375388,0.512543553450465,107.407444598817,-106.68259855422,886.501215983862,12.262516255844,10.7866322353179,-4.91975434797453,54.6477513836205,-0.231554522598274
0.200872619932617,0.0562356019562925,0.950494680711112,-9.49124553965798,0.198234907094314,-15.0122200937379,-15.2181767214739,2.76833116002894,-1.20501385286149,1.05118058013882,-0.457563451661982,1.04617801174401,-1.60290633016056,65.3928415641399,-1.20475333240873,0.0378403042489407,-0.0208322788469343,0.00126370798926724,0.00134365266444737,0,4.61538461538464,0.0366521496364701,0.0464144813181715,0.00193478204505143,-0.00112549420180234,0.755640860991026,114.164293710914,-113.095656157017,915.516167182346,13.6029834920811,13.423864743431,-5.13532298870758,67.1172736985515,-0.236997880145913
0.187580999293745,0.0562008615598705,0.94217058112218,-8.49995218681746,0.196039442350923,-14.0361959505231,-14.2395638162669,2.28488520303185,-1.20486537441537,0.867608250036285,-0.457507071969631,1.06874130249742,-2.6341759338682,65.3908272230747,-0.961168886995022,0.0320828063537274,-0.0208384571367985,0.00125846889647631,0.00135028884864921,0,4.61538461538464,0.0366717584605882,0.0464144813181715,0.00164040006865937,-0.00112582799290942,-0.361130999803802,117.704658109389,-118.215374467104,931.439319493038,14.803503481942,15.208079857001,-5.35195392996264,76.8589168002569,-0.180884409071377
0.182211262678713,0.0651193871514208,0.936477007636399,-7.46435564986806,0.194489551854413,-13.11819060037,-13.3200976231036,1.87388870847743,-1.20210342786029,0.711546164755917,-0.456458315728324,1.07311436387985,-3.6236842452315,65.4550371453923,-0.368662350852316,0.0265259031846624,-0.0208574767868127,0.00125738226982337,0.0013505216972177,0,4.61538461538464,0.0366988871510298,0.0464144813181715,0.00135627453925385,-0.00112685555719889,-3.8490266505046,116.352723442742,-121.796069133821,932.445276257817,15.7178296889644,15.716419844129,-5.54189153079373,80.3870450535295,-0.105081134820626
0.170833103989226,0.0640687522983108,0.926975213455807,-6.40310732549436,0.195364653979023,-12.1819651974118,-12.3852159140944,1.49720297484293,-1.1984368014091,0.568512436086047,-0.455066037746639,1.06158027146767,-4.57136873059882,65.3371572521372,0.152481729512028,0.0212787275979241,-0.0208326812349953,0.00125629564317044,0.00134912460580678,0,4.61538461538464,0.0367448103008105,0.0464144813181715,0.00108798544079245,-0.00112551594140332,-10.0555884383672,110.030040913283,-124.250790460464,920.332974705159,16.4122819933866,15.1242121675768,-5.67629080195815,77.9299166496633,0.0156651749610581
0.151127652806408,0.0521255593403695,0.925095686468397,-5.46883072062601,0.197349188165977,-11.2904913195127,-11.495557318882,1.18968502515859,-1.19490540281043,0.451742845287195,-0.453725107990385,1.03905661666583,-5.41771567519421,64.774775228848,0.865337015782631,0.0174291859382199,-0.0207997862550915,0.00125334622796962,0.00134248842160494,0,4.61538461538464,0.0368003509769267,0.0464144813181715,0.000891157634232679,-0.00112373874221056,-17.3584604459917,100.703507107449,-125.252077292088,899.246744738097,16.8091940351372,13.8580726286612,-5.72120375051014,69.9234110776875,0.0430131780262084
0.120821508589458,0.0450810142385172,0.92511947396351,-4.61817254044784,0.19960521498397,-10.3529393977027,-10.5600811254165,0.913738727076583,-1.19199678789801,0.346961526529807,-0.452620659377019,1.00951821880756,-6.15627679414201,63.8557695062339,1.83068125279607,0.0144192764183892,-0.0207949343807493,0.00125070727752678,0.00133887926879341,0,4.61538461538464,0.0368748709586286,0.0464144813181715,0.000737260380714669,-0.00112347661263366,-24.9033943117977,89.6885663441285,-124.907284328998,872.147238037045,16.9496472897539,12.4000213682156,-5.6877305637579,59.0837067042626,0.0712730771653377
0.107033133411501,0.0338860666988577,0.928532997026183,-3.9285155982755,0.201684192442482,-9.43457978444081,-9.64400168981899,0.690671893635181,-1.18960029837827,0.262259404626077,-0.451710673144147,0.979609800594571,-6.72787225984857,62.8904404501309,2.5592714355825,0.0122137072972235,-0.020771156730904,0.00124962065087385,0.00133887926879341,0,4.61538461538464,0.0369561041189301,0.0464144813181715,0.000624489206712526,-0.00112219199047446,-31.3108633801055,79.3451111827267,-123.625358824483,844.74645794297,16.877438305024,11.2467323877485,-5.5878923614553,49.7140813666236,0.0912503985196017
0.108225205692594,0.0238846237696093,0.932338996784845,-3.32226281268327,0.203640023825384,-8.54529005116906,-8.75653015375185,0.507293462578569,-1.18878258724208,0.192627617675769,-0.45140017486311,0.9536371697054,-7.26583391022348,62.224434913288,2.78951443692716,0.0100504938816696,-0.020758106741699,0.00124962065087385,0.00133887926879341,0,4.61538461538464,0.0370512071148766,0.0464144813181715,0.000513883688096879,-0.00112148694580356,-35.9942335464664,71.0121174242609,-121.915650672898,820.688587765478,16.6886731102867,10.6767103859991,-5.44963493454814,44.3840087756907,0.0822407526744161
0.107668232116002,0.00542540064115274,0.932074733976311,-2.72655282657489,0.20555191942023,-7.6867746416482,-7.89980317156423,0.345911524542994,-1.18747151899017,0.131348258581176,-0.450902340823041,0.933396597687814,-7.65086763013761,62.0546771886285,2.58012617466328,0.0073289150501528,-0.0207470941963769,0.00124962065087385,0.00133887926879341,0,4.61538461538464,0.0371787152264312,0.0464144813181715,0.000374728838210644,-0.00112089197700546,-39.0011229295368,64.7761323298047,-119.932049324536,801.536784301083,16.4243414166422,10.6471009221138,-5.29217675951639,43.8848410081046,0.0678789842073615
0.111237074773967,-0.0109351091201253,0.932758656617386,-2.12958088187245,0.206842848477579,-6.87147725546944,-7.08612252172676,0.195273779655871,-1.18711727929242,0.0741486452012529,-0.450767830221,0.921385086624319,-7.89870933859462,62.227963695471,2.27411111639299,0.00401807764103048,-0.020741513640428,0.00124962065087385,0.00133887926879341,0,4.61538461538464,0.0373330007575506,0.0464144813181715,0.000205445083748395,-0.00112059047934362,-40.802312986337,60.4627260660421,-118.165910467512,789.515489414054,16.168872848632,10.994854845487,-5.14755045208483,47.1652268123103,0.0399601105725038
0.110011706435372,-0.0311804796724843,0.927632386060637,-1.43441778869538,0.208733625462365,-6.04967079828744,-6.26575039791789,0.0306084871731214,-1.18552505943096,0.0116225427681409,-0.450163238320346,0.916245735314395,-8.09910237080637,63.1942902584887,1.89649219822475,-9.96209641484015e-05,-0.0207351990878491,0.00124962065087385,0.00133887926879341,0,4.61538461538464,0.037619615300767,0.0464144813181715,-5.09363908590759e-06,-0.00112024932644494,-42.4174479575941,56.761156686571,-116.748486869456,783.451299333439,15.9478732019435,11.4388073353983,-5.02382053953175,53.4123362086701,0.0412101198274201
0.124260793511237,-0.0381060887203932,0.927446498045829,-0.679398061384495,0.211590418884274,-5.26919078421435,-5.48765300468567,-0.148781014286944,-1.18334201707802,-0.0564945824292773,-0.449334301464756,0.917052048364092,-8.15657348959292,64.5508291283691,1.56235655913871,-0.00484900814140958,-0.0207165445914153,0.00124962065087385,0.00133887926879341,0,4.61538461538464,0.0383801010716692,0.0464144813181715,-0.000247930720286693,-0.00111924149010942,-44.6907413887065,52.7663273263698,-115.968579910787,782.711204869036,15.8215535306464,11.6805518461819,-4.92277496059504,59.7892357318989,0.102188177842256
0.126609107153007,-0.0359600134929689,0.929235553930125,0.157596147480514,0.215796244155659,-4.49115931285169,-4.71380258590059,-0.350892239758454,-1.1790222189628,-0.13323951754083,-0.447694003528436,0.922528466423224,-8.05697916348194,66.2217676249706,1.38287687984795,-0.00970906560232254,-0.0206835452171688,0.00124962065087385,0.00133887926879341,0,4.61538461538464,0.0402903028144662,0.0464144813181715,-0.000496426394407914,-0.00111745865086027,-48.3335782362215,47.5803198103706,-115.934321670056,786.128003316758,15.835510247022,11.5225739294155,-4.84142255444824,64.002469871379,0.230379446578321
0.12044052138903,-0.029672596885309,0.932929619329651,1.01256605311293,0.223222738458276,-3.70702038588931,-3.93768234264412,-0.575961562665246,-1.17146848788308,-0.218702017418244,-0.444825728398193,0.931468518619631,-7.91539893397329,67.854186095271,1.32993314166269,-0.0145636952481602,-0.0206090482780977,0.00124962065087385,0.00133787025832997,0,4.61538461538464,0.0440228349456892,0.0464144813181715,-0.000744644543298827,-0.00111343384524046,-53.9231048642977,40.536827995746,-116.795614220102,792.632314942383,16.0140104707326,10.8866358107408,-4.76632821018776,64.6794827632223,0.580124413866327
0.112129482960169,-0.0213250276235121,0.93462443451189,1.83526019355939,0.237198439043377,-2.90491599699562,-3.14932771998603,-0.822247287809714,-1.1613463522199,-0.31222073193308,-0.440982188076033,0.943458463141674,-7.78608514763034,69.5364130687127,1.59755879675359,-0.0190910176865598,-0.0204764073059072,0.00124962065087385,0.00133589104549784,0,4.61538461538464,0.0494004273056594,0.0464144813181715,-0.000976127411627491,-0.00110626772355887,-61.292518357436,31.7655591791631,-118.446269912251,801.760599103131,16.3485360786352,9.91154918605594,-4.69354467650355,61.9340028039435,1.06551526245721
0.124051020878052,-0.0177930978565878,0.933966426907032,2.64955669102857,0.258507005499438,-2.0876291941502,-2.353706510394,-1.10272622730518,-1.14742368223471,-0.418723168705307,-0.435695522765381,0.95835602229576,-7.64586498611781,71.6344458739181,1.73574033165789,-0.0244287704940654,-0.0202883644236248,0.00124962065087385,0.0013341446812342,0,4.61538461538464,0.0557320312313409,0.0464144813181715,-0.00124904774083372,-0.0010961084330053,-69.6777529256152,22.1483667537966,-120.687589936883,813.296923529463,16.7866244299527,8.91362020550629,-4.61070182722112,58.2676897904341,1.61519042481621
0.149835291452418,-0.0140714254450889,0.928709018539414,3.40542221859421,0.285987195133767,-1.27908980036059,-1.57260059261142,-1.41603954322981,-1.12971244374299,-0.537693354770558,-0.428970276081922,0.97539128687858,-7.72435708079029,74.4087910339552,1.49132526074156,-0.0312065599622862,-0.0200667641996279,0.00124962065087385,0.00133255354934955,0,4.61538461538464,0.0623761236919454,0.0464144813181715,-0.00159559742188232,-0.00108413615819758,-77.9546779322945,13.0144064476031,-123.258969229881,826.567062197708,17.2653925727738,8.23496064014685,-4.5240635941986,56.2524703897207,2.15514596685559
0.167661346530235,-0.00327717732396854,0.923681391233162,4.15617110486061,0.322455841370868,-0.435897790144567,-0.765800193524514,-1.80386727213204,-1.1086078526617,-0.684957881120469,-0.420956517967741,0.994239287717145,-7.99640102963329,77.888179041624,0.827907651315492,-0.0397589883748527,-0.0197771031890732,0.00124962065087385,0.00133150573079136,0,4.61538461538464,0.0690544244262866,0.0464144813181715,-0.00203288473398643,-0.00106848680028226,-85.4634485963456,4.9712073318365,-125.834775423964,841.230077006567,17.7445052950041,8.07343461605289,-4.45463915476686,56.5701381269636,2.89200868899052
0.146708866589752,0.0110534806557746,0.915019098158867,4.91675578222157,0.372292121156663,0.439214549792989,0.0597637852346515,-2.2801450711183,-1.07916697004099,-0.86580834448786,-0.409777333728556,1.01279984035102,-8.61484492394022,81.442642502865,0.0467869007968384,-0.0502220856495953,-0.0193542093700084,0.00124962065087385,0.00133111764984388,0,4.61538461538464,0.0757608214051975,0.0464144813181715,-0.00256786491304684,-0.00104563934586632,-92.1301261640421,-2.04565852594148,-128.246015398391,855.566014524262,18.1880917584148,8.37182818707275,-4.44166175612122,58.7559809923405,4.32435615653124
0.0757092907121175,0.0286496220967839,0.910105803165205,5.71985342471664,0.456328820043866,1.37236550438721,0.908929366078362,-2.89146720364025,-1.02999896447855,-1.09793734812535,-0.391107438537676,1.02934926083688,-9.47786924760944,84.3713716398405,-0.26535677823785,-0.0625413882079223,-0.018571065046443,0.00124962065087385,0.00133111764984388,0,4.61538461538464,0.0826069866771355,0.0464144813181715,-0.00319775322579936,-0.00100332883332837,-98.9957409700777,-9.51214322674395,-130.488976270314,868.116486435262,18.6039088590522,8.88057418997844,-4.51417935580465,61.0873751411515,7.52962222556887
-0.0122566817745465,0.0345331413320829,0.907722211899223,6.53365730514222,0.596548669322411,2.34856102618257,1.74444322783802,-3.61264742807692,-0.952581609943646,-1.37178126450855,-0.361710803905291,1.04226874882592,-10.4924468290584,86.382215595356,-0.469825769059824,-0.0765623103190333,-0.0172431940637851,0.00124962065087385,0.00133111764984388,0,4.61538461538464,0.0892798333078415,0.0464144813181715,-0.00391464567405185,-0.000931588669772378,-106.794717020099,-18.6104005050153,-132.420136694605,877.521686425028,18.9575298120718,9.3307686561347,-4.64811795872343,62.2424515333856,12.7804979481757
-0.0694944508147846,0.034262991624055,0.914480909088114,7.36251324003854,0.82587559866324,3.39402787491079,2.56066811102132,-4.4730592622943,-0.838094947865143,-1.69849369837845,-0.318238347430619,1.05136726871896,-11.6777166407403,87.5815977302235,-0.415989389740387,-0.0915763080965551,-0.0151724924059711,0.00124962065087385,0.00133111764984388,0,4.61538461538464,0.0953066686018386,0.0464144813181715,-0.00468231427241426,-0.000819715997240674,-115.452422646986,-29.5424679525857,-133.731913963612,883.567736680794,19.2094281729153,9.69502257925928,-4.80193588880829,60.6043928177006,19.6281809416027
-0.0849654116430265,0.034551816737362,0.929364161339726,8.13126636793384,1.14091418522456,4.4660200083593,3.31784891430426,-5.44499384249949,-0.691339219226333,-2.06755314134856,-0.262512799058137,1.05724995063359,-12.7822692877792,88.3067740568396,-0.627167648703501,-0.107307122268665,-0.0125095720202121,0.00124962065087385,0.00133111764984388,0,4.61538461538464,0.0999768010877968,0.0464144813181715,-0.0054866338311052,-0.000675847845510649,-123.802297492202,-41.0207243170921,-134.062163849328,886.879006872711,19.3295341267148,10.1370950724321,-4.92321972546155,56.1113141056423,26.4428188430324
-0.0832304130336964,0.022535193846159,0.945849357658291,8.82748664601758,1.53590089907142,5.57457353017301,4.03151113843701,-6.53211722187025,-0.523966906550064,-2.48035165371927,-0.198958796820783,1.06123452854294,-13.8200175326128,89.0037067060034,-1.25426901096805,-0.122508145843665,-0.0094583179519004,0.00124962065087385,0.00133065195270691,-0.000602021353239993,4.61809371147422,0.10314366416784,0.0464130841927288,-0.00626386509451759,-0.000510999401068093,-130.734981116184,-51.7616687485572,-133.12551462254,888.698296681079,19.3053360206031,10.9509442701543,-4.99636938203152,49.4945216024715,32.3088073285114
-0.0831495699217681,0.00808492790534467,0.956769113367537,9.44009105052353,1.99017463674254,6.70518831739335,4.70791202892969,-7.68936798454341,-0.349841839127029,-2.91977867951634,-0.132840663255959,1.06452316471982,-14.8023934505156,89.8073785347606,-1.79960199966115,-0.136007994597507,-0.00616955600165871,0.00124962065087385,0.00132634425418992,-0.00163405795879424,4.62273787619921,0.105261288472372,0.0464106891205414,-0.00695411496164373,-0.000333319247432385,-135.162693963544,-60.5478016693186,-130.601113260809,890.283126118806,19.1043422712284,12.3779749990483,-5.00778375800616,42.6930126533928,36.6407620285489
-0.0851054897783618,-0.00330574481272994,0.963105935518241,9.96878005618702,2.49554056280808,7.8707886165456,5.36780897474263,-8.89811694489825,-0.172502777561859,-3.37876041253079,-0.0655021235938902,1.06741165936974,-15.7731530832823,90.8195067840614,-1.60688307124995,-0.146418285232186,-0.002825066384148,0.00124962065087385,0.00131380923958644,-0.00318958970173045,4.62973776904243,0.106596262592986,0.0464070791605903,-0.00748639512702604,-0.00015262832541881,-137.305990113502,-67.722560357116,-126.457433056465,892.018075914976,18.7509065046686,14.4100111714651,-4.96583853835084,37.1220665381729,39.2675301544389
-0.0717024071816079,-0.00961388077985267,0.958049215095296,10.4606507446828,3.02303277515345,9.04965662037438,6.01936026201091,-10.0905464210719,0.00805774774483585,-3.83154537071685,0.00305965849437619,1.06913509841164,-16.8997139121066,92.2730409839167,-0.871333674595877,-0.155587438744836,0.000488780901981047,0.00124962065087385,0.00128043427810347,-0.00606793201036754,4.64269030943129,0.107455153108287,0.0464003993223248,-0.00795521571229108,2.64071000188415e-05,-137.745431965191,-73.9865482267258,-120.814909813387,893.328159152994,18.2802580717262,16.9053564251671,-4.85046961808291,35.0913457030508,40.2135738196872
-0.0603082983843723,-0.00562539718088378,0.952513159117638,10.9376152197453,3.54199215771045,10.2563853967388,6.70724745447143,-11.1519563107199,0.187878004431089,-4.23458005084291,0.0713403484903633,1.06823868257685,-18.2291594973864,94.474356430262,0.646009717949577,-0.163974152341109,0.00353619027063449,0.00124962065087385,0.00121003639423126,-0.0124487322223563,4.67140391038524,0.107981986826688,0.046385591245713,-0.00838402999391809,0.000191047828963497,-137.348362869678,-80.1553245305736,-114.084593009466,892.929470297172,17.7361729314709,19.5879126837294,-4.62485058952442,36.5325463881022,39.9431258058927
-0.0546569648941076,-0.00124975830387118,0.960743224001436,11.4539662636193,4.0659527004905,11.5008996731069,7.42750926047806,-12.0496729270075,0.375429321137415,-4.57545772008085,0.142556648313067,1.06257479397849,-19.7561133318299,97.2091129147775,2.33239172435687,-0.172663477051814,0.00647449398809176,0.00124733097328374,0.00110707851886578,-0.0295415053410948,4.74832138941956,0.108315821139026,0.0463459236357832,-0.00882831684011502,0.0003497939662167,-137.258366972043,-87.2734156267772,-106.83922849427,888.806960977108,17.1285208626515,22.02878951868,-4.26440783420214,38.9876429364531,39.8076341099111
-0.0473515393370042,-0.00496619432867943,0.986244185057493,11.9871386480234,4.59862488819588,12.7924302468115,8.18708211429809,-12.8099598909478,0.577408799414452,-4.86415110451628,0.219251556861933,1.05181126933112,-20.9451839956163,100.279035374908,2.83164080039119,-0.181295918238336,0.00917615117331984,0.00124348897190372,0.0010058281996692,-0.0926271359136941,5.03220672699626,0.108568572345398,0.0461995192947003,-0.00926969522076357,0.000495754929948679,-138.108419111591,-96.0113109990325,-99.3034883864865,880.503786857243,16.4216715786588,23.9845006242708,-3.77982359646879,39.396511383471,40.478672139404
-0.057123727340137,-0.0167900532059997,1.03646620370256,12.4799168423433,5.14434533150614,14.1029349422923,8.95158870037008,-13.4833215947103,0.793563584198262,-5.11983754717326,0.30132906093715,1.03754597749761,-21.5060187851068,103.047110282106,1.2393159847095,-0.188604564548056,0.0118070098956299,0.00124185903192432,0.000932092819648697,-0.224641078955844,5.62727452525381,0.108726586104222,0.0458931513600468,-0.00964338771437172,0.000637890903620942,-140.171234041169,-106.719943548293,-91.5121166873013,869.211805429142,15.5522215342642,25.269238663168,-3.19617189736296,34.9300650153013,42.6714205057535
-0.0700200256582008,-0.0399844120729086,1.08180253786289,12.8845816401816,5.74492488778775,15.4613964594028,9.70918947018603,-14.1080507448176,1.03313403819373,-5.35705741447865,0.392297877259127,1.02176639974797,-21.5900352446854,105.487202556421,-1.44304877906059,-0.194396662029679,0.0134900630961483,0.00124185903192432,0.000884669327867088,-0.42882347697555,6.54802174142447,0.108823635902847,0.0454193003551276,-0.00993953877428148,0.000728820303732495,-143.603369234997,-119.679973020836,-83.4058593537687,856.542618655981,14.4781925719957,25.9193650301043,-2.59048325424994,25.1687598443617,46.885354371985
-0.0814983346193465,-0.0545095686924242,1.11043996357227,13.1356297386471,6.41478187483043,16.8298701478745,10.4075362487102,-14.6732836508918,1.27772448190681,-5.57168558566694,0.485172865711029,1.00584523592044,-21.6438342557789,107.927611937243,-3.58906959734133,-0.197647643411688,0.0135381817725344,0.00124244115334554,0.000847374748814611,-0.692439473813119,7.7374773751338,0.108906294806723,0.0448066744983231,-0.010105762078548,0.000731419985297287,-147.89932971726,-134.034177588155,-75.1270603638844,843.682109711857,13.2164416151261,26.0389180144522,-2.04331941764149,13.6826527666334,53.9688982754324
-0.0837621571433558,-0.0303974392781876,1.13465068774536,13.2464170106225,7.20212649507886,18.2493563402964,11.0401069336506,-15.1740407773576,1.49943274623326,-5.7618312497072,0.569359116720758,0.986505248368387,-22.4844507216616,110.844934626932,-3.7004949657325,-0.200270335602965,0.0129792362022163,0.00123914246529199,0.000810235402141124,-1.02783133034543,9.29166544010667,0.109028994208406,0.0440057849019757,-0.0102398608354712,0.000701222136893934,-152.893609092163,-149.056949585972,-67.1672659923347,827.772650936217,11.8377202490048,25.6104401556254,-1.61380904624326,4.58437866811663,64.2276591321188
-0.0812992238421936,0.000791691142916175,1.16327515971567,13.2596663019651,8.1637413994423,19.7132424293339,11.542204429663,-15.5735680858793,1.6903934685141,-5.91353829762726,0.641870023554895,0.957978970866609,-24.3455974667484,114.358379801695,-1.22016804024164,-0.202834875697147,0.0114510636076181,0.00122358041929818,0.000761007333953748,-1.49957977572958,11.5303328481006,0.109255132947677,0.0428520071572561,-0.0103709862644686,0.000618660387062775,-157.609152140391,-162.945629244668,-59.9473712663984,803.847979112886,10.451482044471,24.6243357289366,-1.30561688169716,-1.76939070839846,77.5970468198946
-0.0897484230268045,0.00488307567899195,1.19946068873391,13.1865909504252,9.29336739495368,21.2278040067727,11.9272120034305,-15.8259133851608,1.83094069606176,-6.00935793146444,0.695238102606865,0.913607386064453,-26.8621978361066,118.100835875328,2.68929332285403,-0.205002977830189,0.0107484842236887,0.00120553465524053,0.000707316334870397,-2.16667364802276,14.8663451964097,0.10952672181074,0.0411347099230686,-0.0104818417441511,0.000580702512711705,-160.919994847986,-174.41742724871,-53.1578119223203,766.103318105922,9.01809978573395,22.9640599843477,-1.00654674908217,-9.42087881026458,93.5909952271231
-0.114723580398892,-0.019297755005036,1.2531955881284,12.9618689958131,10.6601904113432,22.8007358029844,12.1332615577336,-15.9236570684493,1.95129655044278,-6.04647280528721,0.740939187310191,0.85033862925141,-29.4322418958852,121.454294784623,7.46684687510779,-0.20768166424612,0.0083818027797451,0.00119055473066795,0.000664743854932241,-3.08779252931006,19.8704839959431,0.109767949130616,0.0385616668737435,-0.0106188034965665,0.000452839101212499,-161.644000834749,-182.498146780827,-46.1009914759227,711.884702323756,7.44491141246203,20.6079102982021,-0.5757620276913,-22.6509598342972,110.088142167699
-0.158689522460373,-0.0868698231679084,1.3087690073967,12.5152381319378,12.2368091754029,24.4089539268776,12.1646536545669,-15.8853902192273,2.05300770251981,-6.03194225730002,0.779560573866343,0.771194095528197,-31.412404501417,123.684728536722,11.9141867078988,-0.208757010258709,0.00331729387251087,0.00117976608032811,0.000634512349123833,-4.13198460027709,26.3445083797373,0.109943332420049,0.0352368277319986,-0.0106737861453234,0.000179221632286036,-159.260242861395,-186.831900817512,-38.3960945839056,643.708894356143,5.68126686627416,17.6756084426092,0.0788180736282567,-42.2755189499557,127.373000393571
-0.187439254991255,-0.155635033805016,1.35193823880412,11.7317328943316,14.0970860609538,26.0565005481724,11.9522686960272,-15.7060580387201,2.09040705977522,-5.96384689780511,0.793761720977715,0.6816978051287,-31.7810126206315,124.674180352276,15.2858077267613,-0.210205916847821,-0.00664546032440221,0.00117553599800061,0.000621996738567721,-4.95946670974364,33.374224572601,0.110006783654961,0.0316300609880649,-0.0107478690183133,-0.000359030671506344,-154.08601922344,-187.88194039522,-30.0285977626495,566.188122743623,3.73327151325146,14.3121419407502,0.939422720616038,-68.8350936568742,145.973745219942
-0.151356933909412,-0.191610886785031,1.40776665871733,10.5845296477075,16.1790121855997,27.6935088524238,11.5069391221184,-15.3893600626556,1.98890514992439,-5.84359150097434,0.75521978711418,0.591572998699445,-31.5867591673399,124.625662754276,17.2235394682279,-0.20831525898976,-0.023434301246787,0.00117378963373697,0.000615962079834464,-5.49294510300037,39.6263460836716,0.109970498086372,0.0284269927046064,-0.0106511993178519,-0.00126607225116083,-146.475297093806,-185.337510698328,-21.809841004361,487.954944691586,1.85713602052266,11.0371896803442,1.80752000200371,-98.0847604199882,166.950790796388
-0.0377409621332734,-0.182368434069566,1.47454382298664,9.0474913358752,18.5954342240108,29.3528166362326,10.750191629138,-14.9629220405841,1.64563556701411,-5.68166601535805,0.62487471694423,0.505980218627565,-30.1470239610097,124.869306653634,16.9655533243685,-0.19711201963751,-0.0369852621974791,0.00117400307825808,0.000608530329690291,-5.749231846495,43.962672296748,0.109652659790389,0.0262139789932368,-0.0100783755318023,-0.00199818265016782,-136.57825553722,-178.46094040951,-14.6898808964843,413.965814863887,0.294959355719169,8.25719989567407,2.46197711470497,-128.39901103283,192.230148378175
0.0949027710249731,-0.149262899245025,1.5555111489829,7.13873955790261,21.3662760822727,31.0055514779755,9.63252292469683,-14.3843585741102,1.15206864536189,-5.46197601254465,0.437459291170423,0.430673601165401,-28.0478573163915,125.11364545337,15.9011622411447,-0.176462686912159,-0.0467093031176258,0.00117460460372667,0.000601020963356624,-5.85323628507904,46.5096797120257,0.109302222694818,0.0249242576081807,-0.00902257117207866,-0.00252353812155565,-124.349261654283,-166.393056439587,-9.46335586298041,350.065982133819,-0.74152233065597,6.47998810815682,2.70043310435471,-156.479505270744,218.435916418696
0.178501481005499,-0.134302790024823,1.57015178807711,4.86851675192039,24.4965402214363,32.6683866086643,8.16461636422037,-13.5091319568738,0.603333504490197,-5.12963816346671,0.229095591027688,0.365605135299719,-24.9261561801082,124.882218719494,12.5908430667917,-0.146161253690299,-0.0485685471587759,0.00118112436364427,0.000597644659113579,-5.78887589955348,47.9695843975564,0.108338617702234,0.0241955739647186,-0.00747325305477993,-0.00262398648841101,-110.013523601803,-149.492149499726,-6.09046762239617,296.634320379381,-1.27054554730889,5.71995385567942,2.50401455205502,-178.20540368096,241.429282499802
0.144490627051562,-0.119690931110021,1.46987528125334,2.37158129360027,27.8462296395743,34.3254970800776,6.47175153324647,-12.1996879105061,0.204193865637301,-4.63242086078469,0.0775357476159618,0.308806757520786,-21.1177700481069,123.745232365301,8.52779571519512,-0.109496990164755,-0.0434366795503908,0.00119885966294394,0.000591435363953958,-5.40958703516387,48.8368050435638,0.105548703770827,0.0237688371526043,-0.00559860219844485,-0.00234672986756347,-95.147357532157,-130.313713510601,-4.24496993533725,251.160447981638,-1.4415102579111,5.50233331605459,2.00844942484962,-192.635321921193,257.242747119617
0.00270610028084187,-0.10673864710112,1.30256679435783,-0.189110682434797,31.323557869114,35.9486244761812,4.61754746534958,-10.3746115159836,0.0892009960243077,-3.93940952930377,0.0338710758682543,0.257288992728095,-18.2106402123915,120.299911899716,4.10338247639874,-0.0709184612392765,-0.0355464079512305,0.00124152916311896,0.000589883040164053,-4.56383557832725,49.2799690588317,0.0996587992309785,0.023547104152389,-0.00362607458348512,-0.00192044645417648,-81.8423448531632,-111.994441407774,-3.7481126599855,209.34313331788,-1.38105685783106,5.14139610575557,1.41903695284888,-199.606457861728,264.512946850674
-0.230512806390573,-0.0750312611188606,1.09162317352822,-2.82332987208665,34.8738522355514,37.5054858779211,2.62420107960674,-8.12447893885555,0.197351433737982,-3.08499741923309,0.074937564408209,0.207914559311877,-15.2611143788725,112.885415045912,1.16288599351357,-0.0316668317666573,-0.0270803615249234,0.00132378291993657,0.000589883040164053,-2.97184816190749,49.5267261616117,0.0887781737065845,0.023412591485839,-0.00161913120789741,-0.00146305596727829,-71.1205108689741,-96.3563361198832,-4.22325491392304,166.993991280878,-1.20091787086927,4.17362140824985,0.913911053032876,-199.84429954695,263.218516853659
-0.477357848395016,-0.0424362428118776,0.96521561618737,-5.39498365414754,38.3257726518227,38.9154882027616,0.582901376088147,-5.64581459233638,0.454101886290024,-2.14380806177334,0.172429906929014,0.161866151800636,-14.2677584563235,100.565764032652,0.207653339372989,0.00626348584056486,-0.0179291240318182,0.001433590424025,0.000589883040164053,-0.82285953747475,49.6462508956755,0.0742521744822287,0.0233310777033507,0.000320253237501334,-0.000968647035183863,-63.5230160320415,-84.4409437559878,-5.39416703936882,124.592814989664,-0.950337362493696,2.57522413107817,0.569014781583815,-191.338831918081,255.388940776935
-0.697636416872895,-0.000773541337479182,0.921871716902709,-7.71881069639169,41.5976519346389,40.1310542073086,-1.47338861656228,-3.12501163908013,0.748554387301547,-1.1866179867276,0.284238333357804,0.121098991982311,-13.8601687388575,82.893717376996,1.59627712686588,0.0386529347241344,-0.00922099939611369,0.00152360579979214,0.000589883040164053,1.18461538461538,49.6870517849353,0.0610386650222385,0.0232868113280139,0.00197633199777705,-0.000498177920495536,-58.0030304568908,-75.2387829383549,-6.78988939251978,85.0083877641167,-0.678553370363037,0.780179475028142,0.376689784131934,-167.947973033934,240.50472878217
-0.851392372599984,0.024535644073313,0.931064096887393,-9.59976296539841,44.6564818688371,41.0628809408399,-3.60116747308107,-0.796238010592962,1.02562042497591,-0.302344584343349,0.389444835536633,0.0897163893088932,-14.5811269344997,60.5293611530351,5.36111795102247,0.0608230427803057,-0.00119917669063165,0.00155323578013196,0.000584740967609991,2.54531772575251,49.6638795986619,0.0528969854648161,0.0232574195255944,0.00310989389309746,-6.47872670176488e-05,-53.6906754257843,-67.8967431011319,-8.03333825898406,53.8202043485379,-0.434075254973799,-0.653075545693841,0.289665181503627,-127.30642071429,220.266604086595
-0.945802009800264,0.0307243526017922,0.866280642576853,-10.8464036929656,47.4444071688596,41.6799333927717,-5.77168060240969,1.24147997416939,1.27967384145429,0.471410233833608,0.485913069386661,0.0684658278746122,-14.9986687254069,35.1358790751396,11.0585589866886,0.0708384346183948,0.00589041933933847,0.00149038607068816,0.000580181016477144,3.03707398571552,49.5178630703073,0.051769869033029,0.0232259988496941,0.00362198280694471,0.000318238482756555,-50.0999094904536,-61.8801712621346,-8.97180021292943,32.8944298180613,-0.261941908806988,-1.52921884199777,0.264308890843903,-71.8410594010858,194.141076155442
-0.977754386309013,0.0245762507697266,0.760821043913356,-11.2992490962814,49.7945272292247,41.9433248438002,-7.85844299643966,2.82103210078014,1.46753581528332,1.07119198855433,0.557247330795457,0.0565866458787146,-15.3347805471381,8.69294423858977,16.8528567598286,0.070128609836625,0.0117038879269902,0.00133950019830936,0.000580181016477144,2.81010638682341,49.1610622687812,0.0565378315537234,0.0231464165484459,0.0035856893291263,0.000632319589093366,-47.273758641709,-57.3870436488361,-9.46814696662101,21.8366754705491,-0.181041097456438,-1.91147387004697,0.258673955805225,-9.5396064411854,165.66620351925
-0.963256600428144,0.0073598081151901,0.642448816520218,-10.9893047335069,51.7826168875113,41.8517786492381,-9.93820070503931,3.74583963163707,1.61463852409628,1.42235652076036,0.61310463321024,0.0513739789352023,-15.4714447771948,-18.7356624493021,21.8855609863134,0.0659026538146188,0.0163658863427933,0.00112877224382971,0.000580181016477144,2.0915813645268,48.3111009811562,0.0650195993814508,0.0229880227456328,0.00336961538371706,0.000884190842562609,-45.2912250083964,-54.3759609186572,-9.67550374470853,17.7403517245681,-0.168858843299462,-1.9954918251642,0.254115142927411,45.3475640290673,135.26916042577
-0.920243123770086,-0.0133243186608431,0.546525687562346,-10.0866761439546,53.3345644883976,41.3952433862477,-11.9470842570104,3.94485340493505,1.68956203122331,1.49792530266461,0.641554313228652,0.0499910193622485,-14.8141953459336,-45.2642090372913,26.3024211358995,0.0626120708818676,0.0198721342868185,0.000929938970390203,0.000580181016477144,1.33891596734156,46.7525394081604,0.0725649925630754,0.0227166919311917,0.00320136724453309,0.0010736209937274,-43.8388253767436,-52.2090305784334,-9.78843082786317,17.6964735775963,-0.191546054148922,-1.88037470576089,0.250287217168858,86.832051691354,105.028978569522
-0.873949557448779,-0.0329861233374668,0.482864879055879,-8.66627105756931,54.5103354775776,40.6030990175402,-13.9144169493946,3.63801844460312,1.70196081589079,1.38141505408394,0.646262334381599,0.0496861619801028,-14.2589977376351,-70.8787607268442,29.2609885938798,0.0608906238459591,0.0234120158462904,0.000777442562079373,0.000580181016477144,0.747090301003348,44.4187828703715,0.0770908572527027,0.0223217702106875,0.00311334932600179,0.00126486824994579,-42.2498919376239,-49.7422597861328,-10.0081104008525,19.1101130361221,-0.203957701909395,-1.59824734232759,0.233782982800444,119.309315610559,74.8224121094619
-0.831118109297093,-0.060086667137791,0.429628968898525,-6.88489254556214,55.283036265764,39.4985940796398,-15.7918525168843,3.1027421241096,1.6559055407643,1.17816188797607,0.628774393803921,0.0489306846682538,-13.8966459851415,-94.5453139526332,30.5716390197319,0.0551490395748378,0.0270403222701674,0.000689115338433757,0.000580181016477144,0.430167224080271,41.4104291312181,0.0776451015258567,0.0218203079496299,0.00281978101627484,0.00146089278823276,-40.2946832777956,-46.6602202332922,-10.3250673496948,20.3948108638699,-0.187904966685064,-1.20414902260053,0.209064172113205,142.78113544056,46.4059248064584
-0.792514451693872,-0.0827684508866735,0.395938886428349,-4.88015327365191,55.7065768306822,38.0759059793647,-17.637521894296,2.58363549277153,1.60864814697838,0.981048617077459,0.610829989126844,0.0473120826320504,-13.1315188479674,-116.584611636446,29.8239899320247,0.0434552634105962,0.0318515145797387,0.000640644028093959,0.000580181016477144,0.232107023411372,37.9302743280317,0.0759603774527041,0.0212489810560902,0.00222187598854086,0.00172082445907709,-37.9555883621262,-43.0586131685304,-10.6186946610389,21.0766964768915,-0.152434600566787,-0.74972388440944,0.180597583578915,159.960601114401,19.4769965624188
-0.770204125805408,-0.0980020039912581,0.377243968019621,-2.71266479751825,55.756670518212,36.3898539568029,-19.3740351875476,2.11570266091624,1.61080958650589,0.803366874098953,0.611650723036595,0.0448194938194212,-11.9242648215097,-137.330477537504,27.6519328052341,0.0248846350880303,0.037554836505743,0.00061060656275929,0.000580181016477144,0.102675585284282,34.2369007803791,0.0731720158450864,0.0206465143992261,0.00127235618533183,0.00202895473161684,-35.5381485697835,-39.2986645286101,-10.9598671604078,20.879052353363,-0.0964178167573908,-0.29151976565333,0.147311157778062,169.825882749524,-5.27249341414342
-0.750464078048279,-0.111217461109866,0.361587752303953,-0.448358536336698,55.4906534196095,34.4013780670377,-21.0969249982968,1.61496171237356,1.67885469355331,0.613227353080502,0.637488562141427,0.0416386380371661,-10.693625452213,-157.941860801964,25.0336184435969,0.00111837544973074,0.0437917784012946,0.000599196982903485,0.000580181016477144,0.0535117056856193,30.3957636566333,0.0692853851561109,0.0200225190437789,5.71827521663211e-05,0.00236591460009779,-33.1712801266373,-35.5523681063901,-11.3589061299775,19.950361956835,-0.0285756815132565,0.160570508756683,0.114858120000629,170.883479905798,-28.9755649744104
-0.743147810626672,-0.115420215867071,0.341799809758581,1.72563148146506,54.9017035240709,32.1481777449412,-22.7611231822189,0.933095411185558,1.82146741661562,0.354311575803183,0.691640943593594,0.0382261290017488,-9.54744154305621,-178.28789981192,22.6982951046,-0.0194476384394341,0.0496334596732784,0.00059271603108063,0.000580181016477144,0.0255852842809344,26.5292642140468,0.0651228935936375,0.0193944035622726,-0.000994361499414277,0.00268151993779049,-30.9803535368563,-32.146306523607,-11.6665296153285,18.6994796436524,0.025984194532222,0.580969840660266,0.0953318160657071,158.523619371374,-51.7884395657405
-0.720171252351133,-0.118003309151084,0.337104652272603,3.57753271298559,54.0277666633337,29.5866996125538,-24.4483510062603,0.0147338086723948,1.99384073266971,0.00559466792540111,0.757093908537392,0.0347962593604989,-8.4042967850442,-198.655949003347,20.7296624207733,-0.0361767624362026,0.05407853613566,0.000585226068794337,0.000586778392584242,0.0092307692307695,22.6499442586399,0.0609090459857813,0.0187642053796816,-0.00184972483173455,0.00292167166683259,-28.9011561347936,-28.9549584176852,-11.9174485564022,17.4193095134827,0.0738702544182359,1.00401492398926,0.0841622301604898,132.070143225654,-74.6039161120719
-0.701082725606248,-0.125395454452634,0.350917485603101,4.96519711615834,52.8420670221742,26.788276143577,-26.0611709881631,-0.981111623596585,2.13347275413031,-0.37254411631245,0.810114468882265,0.0312028800353896,-6.74405978988159,-218.144792636435,19.6828358238059,-0.0462085782057406,0.0585029987379539,0.000584061825951907,0.000589883040164053,0.0167224080267559,18.7444258639912,0.0563671406169919,0.0181297512426999,-0.00236265350436035,0.00316070970206444,-26.761135545564,-25.8242975114297,-12.0216633216117,16.0400635265772,0.107014218156777,1.42980447985168,0.0707777275322104,95.2385650193093,-97.6086686806229
-0.673163495863935,-0.116607983379118,0.377427229155625,5.86186868203486,51.2868147466732,23.7054162290705,-27.5892894222671,-1.87051905858637,2.21474914614609,-0.710266653627159,0.840976443108587,0.0272282616513329,-4.98972579115719,-236.442729496589,19.6274930764994,-0.0501180576626797,0.0603688256071446,0.000584061825951907,0.00059337576869134,0.0167224080267559,14.9052396878485,0.0519122947407531,0.0175060728200264,-0.00256254594203796,0.00326151371579096,-24.486259316027,-22.6004242591268,-12.0283757573832,14.3892574017565,0.132133212240289,1.85642049932822,0.0582280214812537,50.4424915128325,-121.965180730061
-0.631164932744771,-0.125586967577814,0.441621393050902,6.15757668346112,49.4448698861085,20.4320895998892,-29.0200919103544,-2.47830748199013,2.21302605344174,-0.941053850166372,0.840322156650833,0.0228786832023007,-3.63948823710499,-251.426190464196,19.6390676758065,-0.0485850456633333,0.0621382448496525,0.000584061825951907,0.000599585063850962,0.0167224080267559,11.1970457079153,0.0476094472356089,0.0169036741693063,-0.00248416274322246,0.00335710916709193,-22.1088398324242,-19.2203539260546,-12.0462672132942,12.4045105279264,0.170078729597659,2.27526929741643,0.0434158347827748,7.92177107806229,-144.620781218119
-0.573131662121017,-0.136966713462058,0.544815284523344,5.94107626639846,47.3266302828169,16.9863319117543,-30.3476282152453,-2.73795190922346,2.14735184514275,-1.03964508216554,0.815384586544814,0.0175603819438015,-2.11461987990025,-261.947876096237,18.3542377467812,-0.0429129776392607,0.0624997138365381,0.000582199037404021,0.000599585063850962,0.00869565217391298,7.79041248606455,0.0437496588121669,0.0163502642701892,-0.00219414881259733,0.0033766380554992,-19.1678887811694,-15.0878529988638,-12.0196352775251,9.66799595442928,0.213661069318813,2.723482265533,0.0249564601337039,-29.0608977091629,-166.468315240297
-0.460880270930452,-0.141529043776572,0.670505311911445,5.31200709960786,44.89843731611,13.4364521220321,-31.469402256156,-2.68323703354181,2.01117091544996,-1.01886894974623,0.763674462140183,0.0112145079812032,-0.827626485935469,-266.655093552106,17.4748089603051,-0.0343770395842135,0.0617380136200022,0.000580181016477144,0.000615205321986885,0,4.81159420289846,0.0403940522196547,0.0158663532007493,-0.00175770465564955,0.00333548609207159,-15.2279110062472,-9.54818989908429,-11.987328372561,6.1098105151789,0.261950876140476,3.28349560773749,-0.00316837222638574,-57.108365826494,-187.608338633467
-0.415972171138229,-0.146637751345934,0.792625636296903,4.41971074259434,42.2079637822418,9.91113753861146,-32.3039587676413,-2.35593985587275,1.79041074883194,-0.894588862859385,0.679848219323685,0.00468115098540577,0.99375743127904,-265.79091036492,15.342168184365,-0.0252920769492738,0.0600987142677228,0.000580181016477144,0.000628691134911688,0,2.49442586399108,0.0377052980552228,0.0154899276177289,-0.00129318876617869,0.00324692055732789,-10.1874045646129,-2.39157345209905,-12.0155922485581,2.23749639006599,0.324692104354453,4.00217895000034,-0.0398061574807799,-74.6935243188025,-207.906620678328
-0.478936083503158,-0.167774718338046,0.842398895393738,3.33447934735474,39.2355149337778,6.3500384568816,-32.8924167728251,-1.84055340224246,1.52306246526161,-0.698888204229688,0.57833170718081,-0.000624425825117387,2.76393341426081,-264.211240994469,9.85975506554377,-0.0163469525387579,0.0565491974664792,0.000580181016477144,0.000628691134911688,0,1.1686176142698,0.0361668804992686,0.0152745491598953,-0.000835822832058284,0.00305515274314141,-5.49335803142357,4.22187477987602,-11.9906562108864,-1.1424933974957,0.376690606573871,4.66372877883798,-0.0804159963939865,-83.4091699877449,-225.296545252511
-0.476513075738144,-0.164041060419498,0.841433485442176,2.24038125551896,36.1723046656793,2.87537332518259,-33.303644659405,-1.27663400471061,1.24343671266915,-0.484758793699601,0.472153239418006,-0.00368273730045231,5.39661328369834,-262.618230428258,3.31879890494151,-0.00870894218986212,0.0532768181786249,0.000580181016477144,0.000638393158598597,0,0.53511705685619,0.0354317905045904,0.0151716365606404,-0.000445289891684944,0.00287835768669851,-3.01642291972801,7.63816942137651,-11.9040356243089,-3.26891149511078,0.389245330454609,4.9647307378128,-0.113410264934003,-84.5859843934682,-236.640513447317
-0.407158768943091,-0.153863460384734,0.850022097738561,1.15091164688881,32.875598639338,-0.630365779214931,-33.5124031543955,-0.738185436647802,0.97324908194891,-0.280301073350399,0.369558580763125,-0.00508982594447215,8.69085874857211,-259.543371933683,-3.39752707731679,-0.00266117999855289,0.048596910534641,0.000580181016477144,0.000675648929556327,0,0.273411371237456,0.0351281171631902,0.0151291222928444,-0.00013606664592276,0.00262551886109641,-2.39625964489269,8.47855255720519,-11.8673754459798,-4.27696600000759,0.379240386533514,4.98839632283763,-0.134706465688896,-80.0208760599164,-245.206790701778
-0.327283722801812,-0.143899053976671,0.874830688171575,0.166434266014734,29.5827999051295,-4.02892055017176,-33.6188274833671,-0.31041620400839,0.714195480885034,-0.117870105327507,0.271191695115481,-0.00558133903368337,11.2374712679248,-254.612206217317,-9.71550240434431,0.00221596914943587,0.0432435175402739,0.000580181016477144,0.000705725202985744,0,0.136008918617615,0.0349686805739353,0.0151068011703487,0.00011330292945085,0.00233629400867388,-2.70631213208941,8.12760074249612,-11.9549040637118,-4.5396813989048,0.375375298801666,4.91537821238473,-0.142547497808557,-71.4265030781838,-249.915667364216
-0.263287808707058,-0.126374497462615,0.896517349628545,-0.637755577731242,26.2828590794874,-7.35213234442913,-33.6421803133781,-0.00550258526708196,0.470657355719735,-0.00208942154639262,0.178716289212633,-0.00578810074520224,13.6125607110935,-248.056385581145,-15.909828208553,0.0057531698932209,0.0363075381735177,0.000580181016477144,0.00075278001786725,0,0.0666109253065771,0.034888153777334,0.0150955274188245,0.00029416068481653,0.00196156762283475,-3.34026240702042,7.46700645623021,-12.1908508541235,-4.50298781905329,0.405018046337591,4.82341244519604,-0.137041806730383,-60.481301944026,-252.471925447033
-0.201324659553694,-0.104425168915879,0.894830301148939,-1.3380099946262,22.8566492978691,-10.61236518105,-33.4764846401404,0.215703019573241,0.191215174473829,0.081905961442245,0.0726075264899467,-0.00583511116495814,15.2765226270701,-239.912338178257,-21.1981018629957,0.00855186333000227,0.0296614395082659,0.000580181016477144,0.000875898698454124,0,0.0234113712374583,0.0348380266549516,0.0150885096216909,0.000437258419323764,0.00160250246403442,-4.21365972674371,6.68759200973383,-12.6466067425201,-4.22949414476983,0.482322919715514,4.7324882550591,-0.129342323827123,-47.3577595018568,-250.759654751399
-0.145116524819043,-0.0885707401901052,0.891621888121411,-1.82070609014499,19.6695237205528,-13.6750914550746,-33.351380220826,0.354524092438254,-0.0945604091605979,0.134618591353261,-0.0359061326169383,-0.00570472206615194,16.6528940887849,-230.836806484942,-25.0132175006034,0.0103351717451773,0.0235119225185918,0.000580181016477144,0.00109147766477724,0,0,0.0348108609886283,0.0150847064284057,0.000528439322092706,0.0012702658534064,-5.320857237075,5.77560489301431,-13.3004333611368,-3.66899338946434,0.60785361926096,4.64325225151661,-0.12538303059658,-34.2928697011714,-245.772508197504
-0.10376815647701,-0.0702532291058829,0.89387724011697,-2.17054053718226,16.3441123492249,-16.7051280804359,-33.0563764032977,0.44736370713839,-0.351653563476649,0.169871310193203,-0.133528604597798,-0.00547654416888246,16.6606752651433,-219.971520885171,-28.3103514036128,0.0113525883331705,0.0168046289894841,0.000580181016477144,0.0014232868748695,0,0,0.0348108609886283,0.0150847064284057,0.000580460028211677,0.000907894552970965,-6.50751925145753,4.96399714242945,-14.1670191252447,-2.88103890054095,0.763820675214859,4.5725356866129,-0.124002313249488,-20.9172112714078,-237.141675023428
-0.0361273103776927,-0.0594120106878981,0.892201080660045,-2.33878580232078,13.3431207145337,-19.4517674565213,-32.8020361831644,0.494166223175793,-0.587296591146737,0.187642990355789,-0.223006112964002,-0.00520388030052863,16.6899769617121,-207.991775664086,-29.4493625062712,0.0116419708814643,0.00756199645957409,0.000580181016477144,0.00188520022260323,0,0,0.0348108609886283,0.0150847064284057,0.000595256213646838,0.000408547870918739,-7.4565814549721,4.5148211302021,-15.0600197527634,-2.03235709283882,0.923273871063632,4.54731157613168,-0.121052019504464,-9.40402752147161,-225.261929991838
0.0260076893902846,-0.052956982933854,0.898569723573902,-2.3730870815939,10.4521524311934,-22.1350670658672,-32.594284014674,0.506379283119282,-0.86192415602329,0.192280488796017,-0.327286687173205,-0.00454357040759978,15.6195453944427,-193.287691486873,-30.3098399936227,0.0113336371042648,-0.000662229107304733,0.000580181016477144,0.00251709302533158,0,0,0.0348108609886283,0.0150847064284057,0.000579491048227342,-3.57778918961573e-05,-7.57396585909634,5.16550856900371,-15.8767138078885,-1.06601470602732,1.07796865070751,4.65367990764876,-0.116578807650973,-0.147993867957102,-209.21232044786
0.10543483428845,-0.0549669989080418,0.897149004905338,-2.31399697139468,7.92145947413377,-24.4949452142648,-32.4238977915845,0.489432958263063,-1.14894201120164,0.18584569231979,-0.436272057085894,-0.00310896513067404,14.5672294426077,-176.818563058391,-29.6911898059085,0.0107255425961602,-0.0115660757960718,0.000580181016477144,0.00304071124371405,0,0,0.0348108609886283,0.0150847064284057,0.000548399058896729,-0.000624874088030983,-6.47975781050541,7.18269256087717,-16.3464539373869,0.0639476729565174,1.18026451590978,4.92089647750294,-0.114938733188759,6.4418490038628,-189.949703809705
0.17747340187109,-0.0538836395992318,0.905404746758819,-2.17800141146276,5.56304266475629,-26.6565087350353,-32.2264873467844,0.450712359089451,-1.49852729872736,0.171142848061008,-0.569015303506398,-0.000527045922920633,13.9464405966363,-155.531012578962,-29.3650511253513,0.0098372223486819,-0.0215108261603105,0.000580181016477144,0.00328413501801858,0,0,0.0348108609886283,0.0150847064284057,0.000502979073534833,-0.00116215370854497,-3.88309507584294,10.9288044110517,-16.420330131293,1.45073150258558,1.2244096761197,5.39854251454528,-0.124142694345186,11.0147520973261,-167.230483527052
0.2702345552294,-0.062906747681569,0.903449806703531,-2.00532196335997,3.59962207927042,-28.4575980661088,-32.064109618672,0.400522136960505,-1.85839032055796,0.152084800535274,-0.705661173596031,0.00305032969062219,12.4072615103644,-130.437889089031,-29.8437058232541,0.00887063273484768,-0.0375643878285603,0.000580181016477144,0.00343131471734898,0,0,0.0348108609886283,0.0150847064284057,0.000453557160394904,-0.0020294707557412,-0.0936104427957064,16.0191827882331,-16.1515679460146,2.98398897046468,1.21941132156274,6.01238683956755,-0.143440218079855,13.6310467388615,-140.486760581949
0.388492187979994,-0.0675107814020515,0.876319886526913,-1.81627301888725,2.0837233233688,-29.8807424992035,-31.9713717347872,0.345574299880492,-2.2958565351777,0.131220208866068,-0.87177424414006,0.00815313363602352,12.1060459642326,-99.1806904085164,-30.9760944810712,0.00789939413118547,-0.0363672197613742,0.000580181016477144,0.00346711518475368,0,0,0.0348108609886283,0.0150847064284057,0.00040389754350958,-0.00196479200753027,5.21452471936898,22.8666504732487,-15.4921988937873,4.95351112922092,1.16016836831177,6.82785700812304,-0.176816351721065,14.9934962163974,-107.097464813784
0.555818579764914,-0.0811492106406519,0.844169575912527,-1.59514121611409,0.948513528557161,-30.747077816297,-31.7029453489227,0.283030551042663,-2.59056872657015,0.10747132537385,-0.983681279250216,0.0137545735851449,11.9151996850041,-61.1569053755441,-32.7574684217375,0.006789485634933,-0.02980832952973,0.000580181016477144,0.00347545892512442,0,0,0.0348108609886283,0.0150847064284057,0.000347147708305509,-0.00161043841135325,11.9988240524482,31.4926779945902,-14.5237782870894,6.3926854180101,1.09166242278654,7.86351798542529,-0.217007992106787,16.4447693916378,-72.0968993097357
0.363242670963054,-0.0854764014897858,0.842839456839175,-1.40001775404436,0.318163844722603,-31.2587409758408,-31.5842496573608,0.233251680183115,-2.49354452527356,0.0885694746472017,-0.946839604497187,0.0217674083890339,11.7419379877587,-25.0998038956393,-37.971116015879,0.00583787573902915,-0.0216415567945573,0.000580181016477144,0.00348050397744161,0,0,0.0348108609886283,0.0150847064284057,0.000298491711028754,-0.00116921662143721,19.0756865092624,40.5224974054395,-13.5454028324632,9.9484783613597,1.00228150963335,8.9716572739375,-0.269922206779434,16.6230143083953,-43.2858720222282
0.0702014412881376,-0.08645686479786,0.816729010451909,-1.1438170842942,-0.0320423989734983,-30.8975047012342,-30.8725928724085,0.172959020962049,-2.08490866718274,0.0656753666686424,-0.791673891458384,0.0233518996498267,10.5643688835128,6.3663307892592,-43.2854756620402,0.00460135807989467,-0.00937959862514227,0.000580181016477144,0.00348108609886283,0,0,0.0348108609886283,0.0150847064284057,0.000235268324939057,-0.000506746474804623,22.4121527219796,44.6292103595871,-12.9336400181865,9.59526065191267,0.992558643536296,9.50118866702344,-0.297679281460854,16.9784960179499,-16.6998729423066
-0.117000240495023,-0.0754190198264443,0.813394203039995,-0.991834776405157,-0.112453206967508,-30.9005348136615,-30.7955777886574,0.14796798933866,-1.42159125574456,0.0561858635703691,-0.539801430735699,0.0281067448458306,8.9562397572846,28.8011913797288,-44.5520634903304,0.00398048018376526,-0.00356694591312538,0.000580181016477144,0.00348108609886283,0,0,0.0348108609886283,0.0150847064284057,0.000203522718516399,-0.000192709447337105,21.7921931900951,44.3117965515144,-13.4929813882273,14.6502585899315,0.996977434775341,9.46415985039865,-0.317496168981597,14.2669961072487,-4.17734785574004
-0.295823707382831,-0.0847150290631438,0.917346440442971,-0.737601277569746,-0.116357493727779,-29.274609394165,-29.1652192428975,0.0945963503434947,-0.784735919982268,0.0359197800714169,-0.297977052577088,0.0218086500976868,5.24953159229144,44.611861519493,-33.4739661950436,0.0027744018416977,0.000376980503450922,0.000580181016477144,0.00348108609886283,0,0,0.0348108609886283,0.0150847064284057,0.000141855700571556,2.03669206784346e-05,17.1487690497547,38.4938016322845,-14.2417798641175,11.5236473499331,1.12404333581726,8.8063110458265,-0.268549962209442,13.4545807862529,1.92682916733423
-0.0188890156879461,-0.267641954217451,1.33003605616198,-0.750447271129253,-0.0969974135085173,-29.615819965041,-29.5263799553256,0.141901774946164,-0.336386046462905,0.0538824228345131,-0.127731278893593,0.0435772709867547,-1.22756268172783,52.3660814273288,-6.34047791221947,0.00318426947254192,0.000524856926338253,0.000676580323830243,0.00335069090051082,0,0.28093645484943,0.0348108609886283,0.0168450416061579,0.000162812311485365,2.8356159770607e-05,15.4580176766413,37.1519120511154,-15.2909738054062,33.5906024935606,0.775597838243072,8.31339313153372,-0.451514669266354,1.21723738232697,1.43101430351378
0.500739327665572,-0.445322792187352,1.57757710829639,-0.739531517905744,-0.0851104856457289,-26.9549104894639,-26.8768900750342,0.205223644860672,-0.0864992626542359,0.07792677161521,-0.0328451835572698,0.0778194261491378,-6.47953158969878,47.3686298630726,22.6855136326644,0.00365196800568813,0.000122175983562565,0.00146816843644512,0.00231280721458007,0,2.56872909698991,0.0348108609886283,0.0311802473007026,0.000186725827573267,6.60073543127525e-06,16.6234261770603,36.5190652618681,-13.0099905091615,65.3553013495665,-0.172521547844573,7.12760528248947,-0.805587363534896,-15.8418805492013,0.232954270506625
0.876971018266698,-0.473610969543671,1.5605210145244,-1.58053284714536,-0.0994878139156025,-29.8057191120012,-29.7140592124044,0.568790814575446,-0.00242123108028006,0.215979167187787,-0.0009193810077232,0.194182727322217,-5.49724188219225,55.3469841366978,16.9928311319813,0.00934870766984532,-0.000312275638599852,0.00230908163748428,0.00121857417507574,0,5.00000000000003,0.0348108609886283,0.0464144813181715,0.000478001223908174,-1.68711461281145e-05,27.9755413600422,50.7859782835512,-11.2225882774501,173.169073936765,-2.01206758857014,6.5209116020618,-1.34703713045233,-62.1264040897299,-0.336294163932641
